time,seconds_elapsed,z,y,x
1746650740041851600,0.0228515625,-0.05398235007822513,-0.010347553551103918,0.040905997184314764
1746650740051817700,0.032817626953125,-0.07313070266246795,-0.0030869879635982214,0.017669858121563447
1746650740061782500,0.042782470703125,-0.05980944879651069,-0.009220412684697657,0.015777969685557763
1746650740071748600,0.05274853515625,-0.0856985078126192,0.0031278314306400715,0.021463680321909488
1746650740081714700,0.062714599609375,-0.06849018338024616,0.004616170292254537,-0.001711634357690491
1746650740091679700,0.0726796875,-0.07222878538668155,0.004056015658844262,-0.011667333196068648
1746650740101645800,0.082645751953125,-0.06758885062634945,0.012994286933913825,-0.004217122221400495
1746650740111611600,0.092611572265625,-0.0651940644443035,0.0008444149348884821,0.015521890874014933
1746650740121576700,0.10257666015625,-0.06848083103001117,-0.007316588357370347,0.0010729070531844626
1746650740131542800,0.112542724609375,-0.06578560059666633,0.003993051691539585,0.02700623561092652
1746650740141507600,0.122507568359375,-0.07700374470353126,0.0019892558547668156,0.0339364161833073
1746650740151473700,0.1324736328125,-0.06338438467383384,0.0026524690038524567,0.03496263340890873
1746650740161439700,0.142439697265625,-0.052907414323091505,-0.008985818477533757,0.026449236482405103
1746650740171404500,0.152404541015625,-0.06772036805152892,-0.011284578672889619,0.026393174896633717
1746650740181370600,0.16237060546875,-0.07864508216977119,-0.0009123290719464421,0.00418439070804452
1746650740191336700,0.172336669921875,-0.04841711716651916,-0.0023102497037500143,-0.005806253434723476
1746650740201301500,0.182301513671875,-0.059935705524683,-0.0058898252235725515,-0.0011206163691414985
1746650740211267600,0.192267578125,-0.06861059488952159,0.0006781367235817015,-0.007075815571169369
1746650740221233700,0.202233642578125,-0.07114917345643043,-0.008373970189504325,0.001591034334397409
1746650740231198700,0.21219873046875,-0.06785597712993621,0.006383746220357716,-0.0050932023738540005
1746650740241164800,0.222164794921875,-0.0727975251853466,-0.0033209611162543294,0.003354311971651623
1746650740251130600,0.232130615234375,-0.05155132353901863,0.00021629136549308894,0.005124658099687076
1746650740261095700,0.242095703125,-0.05079962838888168,-0.00023059388548135756,0.02032545180590823
1746650740271061800,0.252061767578125,-0.03703355336487293,0.01489637596188113,0.014825331436109262
1746650740281027800,0.26202783203125,-0.05140168593525886,0.003966218483541161,0.016913092929020056
1746650740290992600,0.27199267578125,-0.07369768889546394,0.0017267507273703814,0.008989286222142982
1746650740300958700,0.281958740234375,-0.04586743268370628,-0.0064091911888681345,0.01525669831589912
1746650740310924800,0.2919248046875,-0.04018237278461456,-0.00292063668705523,0.0073844984986732014
1746650740320889600,0.3018896484375,-0.04197860855162144,-0.0076844900880008934,-0.0006661207030996593
1746650740330855700,0.311855712890625,-0.040780338677763935,0.016058496810123325,-0.00545222211170767
1746650740340821800,0.32182177734375,-0.07444763047993183,-0.0017913038635626434,0.008392400324516347
1746650740350786600,0.33178662109375,-0.06876432414650917,0.0005577800132334232,0.001172335496699452
1746650740360752600,0.341752685546875,-0.046322190713882445,-0.0003440276646986604,0.0015942357904699747
1746650740370718700,0.35171875,-0.06218026958107948,0.004305606505740434,0.004210645102374838
1746650740380683800,0.361683837890625,-0.04377367527484893,0.0051444867489859455,0.012664455616282065
1746650740390649900,0.37164990234375,-0.0440671052634716,-0.013354991738777607,0.015387956587818916
1746650740400615700,0.38161572265625,-0.05259878676533699,-0.0003865698984824121,0.021421313901350367
1746650740410580700,0.391580810546875,-0.05947919392883777,-0.01350758848460391,0.0021082042041460224
1746650740420546800,0.401546875,-0.05618950473368167,-0.012525920503493397,0.020495915285276712
1746650740430512600,0.4115126953125,-0.06486965479552745,-0.0037999220059253274,0.006917249167215777
1746650740440477700,0.421477783203125,-0.0588812280356884,-0.0054139878727495665,-0.0048080287569231585
1746650740450443800,0.43144384765625,-0.06561316663920878,-0.004885507019236683,-0.00044950660902904927
1746650740460409600,0.44140966796875,-0.048104982477426526,-0.005800484705995768,0.009611629075545351
1746650740470374700,0.451374755859375,-0.04676058213114738,-0.006318864290602505,-0.0016496258039725943
1746650740480340700,0.4613408203125,-0.07713935378193855,-0.005023107125330716,-0.004597549502641777
1746650740490306600,0.471306640625,-0.06052782619893551,-0.011684665640071033,0.02013834086912684
1746650740500271900,0.48127197265625,-0.05708733035624027,-0.003094093557819724,0.011660490180039777
1746650740510237700,0.49123779296875,-0.05619534995257854,0.001325220721773803,0.01543741718615638
1746650740520203500,0.50120361328125,-0.0912187325388193,-0.12956806294368578,0.063356971510523
1746650740530168800,0.5111689453125,-0.05619242734313011,-0.596466302241385,0.10399750442537478
1746650740540134700,0.521134765625,0.037787002080678936,-0.5930132026454433,0.22649609477370977
1746650740550100700,0.531100830078125,-0.10151859275698662,-0.18226367941331117,0.18678678286094216
1746650740560065800,0.541065673828125,-0.06364858856797218,0.2417776523945853,0.09719952398147433
1746650740570031600,0.551031494140625,0.00026829554736614226,0.2395242474446073,-0.01687089775510831
1746650740579997700,0.560997802734375,-0.019915829825401306,0.14154177465820683,-0.14033473695600404
1746650740589962800,0.570962646484375,-0.08065525294840335,-0.023790753296297044,-0.10316402187645435
1746650740599928600,0.580928466796875,-0.03291676569581031,-0.16046061106920242,0.024008430617989504
1746650740609894700,0.590894775390625,-0.03922784853875637,-0.21295177274160085,0.07469161356994881
1746650740619859700,0.600859619140625,-0.04433832342028617,-0.12392468676185235,0.04212225023943465
1746650740629825500,0.610825439453125,-0.026972178077697754,-0.12004004561454057,0.04766733997883275
1746650740639791600,0.62079150390625,-0.0496790999263525,-0.05033031211039051,0.001684250734426314
1746650740649756700,0.630756591796875,-0.036323943790793414,-0.018897647492494434,-0.02346335710599087
1746650740659722800,0.64072265625,-0.0547112488746643,-0.13701344704618676,0.012859963347006122
1746650740669688600,0.6506884765625,-0.20510639300346373,-0.22658125230651346,0.04339915200718678
1746650740679653600,0.660653564453125,-0.12507073325812815,-0.12667836938416585,-0.027775480117485856
1746650740689619700,0.67061962890625,-0.02799801399409771,-0.11576138191465288,0.05855326102322433
1746650740699585800,0.680585693359375,-0.19383798001408575,-0.028589184820279476,0.07224301940801087
1746650740709550600,0.690550537109375,-0.07505377967953682,0.00829995510522276,0.05229934259445872
1746650740719516700,0.7005166015625,0.040140871730446816,0.15983235963564366,-0.10596525170123204
1746650740729482800,0.710482666015625,-0.1138449903666973,0.13927636874318122,-0.20642198738036677
1746650740739447600,0.720447509765625,0.03759001820385456,0.012587149171438067,-0.16374593461649492
1746650740749413600,0.73041357421875,0.028721067571640013,0.02268332177735865,-0.16310922588184476
1746650740759379700,0.740379638671875,-0.31380642169713974,0.08866079168431461,-0.09868099471088498
1746650740769344800,0.7503447265625,0.175219204261899,0.06994301253706216,-0.027914514128840526
1746650740779310600,0.760310546875,-0.03548340131342411,-0.008640439105965196,-0.03165909378491342
1746650740789276700,0.770276611328125,-0.27266017231643197,-0.0072627940772101275,-0.10030570070273243
1746650740799241700,0.78024169921875,0.10579670846760272,0.08496330713955685,-0.003992140088553424
1746650740809207600,0.79020751953125,-0.04893091190755367,0.26823800849262625,0.009520489326526877
1746650740819174000,0.800173828125,-0.2585901459097862,0.38000308731272814,0.0490913312002318
1746650740829138700,0.810138671875,-0.02411269699335098,0.279196515282616,0.06510268266669009
1746650740839104800,0.820104736328125,0.0192886378377676,0.07376779498960823,0.056267259844741783
1746650740849070800,0.83007080078125,-0.06241641642451286,-0.04340727138156071,0.08054156344085932
1746650740859035600,0.84003564453125,-0.10328501790761947,-0.08159920100132002,0.07547111460904124
1746650740869001700,0.850001708984375,-0.0922258637547493,-0.10570817166762426,0.09816095289215444
1746650740878967800,0.8599677734375,-0.01993862617909908,-0.086918368463777,0.1170271366673056
1746650740888932600,0.8699326171875,0.006881576207280159,-0.045099005594477055,0.07969349524416029
1746650740898898700,0.879898681640625,-0.06009878713190555,-0.08612429547663777,0.009873183213226729
1746650740908864800,0.88986474609375,0.022392449072003363,-0.1466802700578235,-0.007630475470487726
1746650740918829600,0.89982958984375,-0.12049509590566157,-0.21922508085742592,0.012185696797654964
1746650740928795600,0.909795654296875,-0.07185410685539245,-0.09022086234157904,0.009915111242368584
1746650740938761700,0.91976171875,-0.02621814484000206,-0.06405263932421804,-0.024841554690594785
1746650740948726500,0.9297265625,-0.13577040644884109,-0.2513880690438673,-0.029029886925639584
1746650740958692900,0.93969287109375,-0.11035013398826121,-0.2818494226778857,-0.012241177286469609
1746650740968658700,0.94965869140625,-0.08478022392392158,-0.03518646419346332,-0.07885436840574257
1746650740978623700,0.959623779296875,-0.10440613089203835,0.021481544772163033,-0.0713402938480489
1746650740988589800,0.96958984375,-0.06686404348313808,0.11302415723679586,0.0034103347415162712
1746650740998555600,0.9795556640625,0.02498714174032211,0.16724086406016722,-0.02435742443546187
1746650741008520700,0.989520751953125,-0.10491174232661724,0.15283183322381227,-0.04064429577451665
1746650741018486800,0.99948681640625,-0.05583411542475223,0.037006427895929665,-0.016479423352645243
1746650741028452600,1.00945263671875,-0.009773205995559692,-0.13858650504918768,-0.004987314863564097
1746650741038417700,1.019417724609375,-0.09674889413714409,-0.09101551985060796,0.008335237051980221
1746650741048383700,1.0293837890625,-0.08911912991106509,-0.061763797734677786,0.0024984038180249626
1746650741058349600,1.039349609375,0.018483166673779486,-0.09759210349563509,-0.03580412573434878
1746650741068315000,1.04931494140625,-0.05572305626571178,0.004800678279995918,0.025016963773139285
1746650741078280700,1.05928076171875,-0.11869944466054438,0.01305027317116037,0.06433217778480611
1746650741088246500,1.06924658203125,-0.032787001836299894,-0.1221748656861484,0.08094155907649546
1746650741098211800,1.0792119140625,-0.07035656177401542,-0.13758699088413268,-0.01132190130886156
1746650741108177700,1.089177734375,-0.17990940790474413,0.09838562849350273,-0.006597164637930109
1746650741118143700,1.099143798828125,0.023278584256768226,0.03081179277319461,0.029260779921931677
1746650741128108800,1.10910888671875,-0.11261749439835547,-0.09869270341498777,-0.10872874333150684
1746650741138074600,1.11907470703125,-0.13672259260714054,-0.1949844831680879,-0.09494726980896666
1746650741148040700,1.129040771484375,0.00004325461983680725,-0.06216136395120993,0.04095859958780929
1746650741158005800,1.139005859375,-0.06161152978241443,0.20615816707871853,0.012056442111509386
1746650741167971600,1.1489716796875,-0.09784721076786518,0.4141759174842387,0.09116050867871381
1746650741177937000,1.15893701171875,-0.06703998457193375,0.32239798016007987,0.036491436711652205
1746650741187902700,1.16890283203125,-0.051474166649579996,0.22392158637689424,0.04888009960234631
1746650741197868500,1.17886865234375,-0.060900751164555546,0.2488710629879497,0.12250080057173035
1746650741207833900,1.188833740234375,-0.07063479419350624,0.0502934324324131,0.07054310188863892
1746650741217799700,1.198799560546875,-0.0618266338378191,-0.03432696128729731,0.014600153511262032
1746650741227765800,1.208765869140625,-0.08532441380321978,-0.07562626407155766,-0.009751142577512655
1746650741237730800,1.218730712890625,-0.07034194872677325,-0.17903189441785217,-0.05761614456989336
1746650741247696600,1.228696533203125,-0.03559036881923675,-0.1749861444246955,-0.06807794018439017
1746650741257662700,1.238662841796875,-0.050074821245670316,-0.028252481945510954,-0.020432962734415194
1746650741267627800,1.248627685546875,-0.060980246141552924,0.03609322204114869,-0.009080241595604456
1746650741277593600,1.258593505859375,-0.0835550660431385,0.06916083091711625,0.03592391162253916
1746650741287559700,1.2685595703125,-0.06604454379379748,0.04271643957318738,0.012180033100204308
1746650741297524700,1.278524658203125,-0.053473816034197805,0.008580342949181795,0.004423399082955438
1746650741307490600,1.288490478515625,-0.04943886142969131,-0.01588829134237021,0.006260664405027637
1746650741317456600,1.29845654296875,-0.0956932476043701,-0.0003692351711913943,0.012378920098103116
1746650741327421700,1.308421630859375,-0.06862170080542564,-0.006406177247874439,0.004182205030001933
1746650741337387800,1.3183876953125,-0.055602060234546655,0.07273876246912404,0.013404331322817598
1746650741347353600,1.328353515625,-0.07445289117693901,0.13036931459028273,0.0537384217871353
1746650741357318700,1.338318603515625,-0.06217851601541042,0.0959449938757345,0.08565454080672934
1746650741367284700,1.34828466796875,-0.06187748724222183,-0.013972666979394852,0.030202702697832137
1746650741377250600,1.35825048828125,-0.055745268097519875,-0.053508668151870366,0.017331957661907652
1746650741387215600,1.368215576171875,-0.06352817705869675,-0.07392084839316085,0.02984248195015825
1746650741397181700,1.378181640625,-0.04481704684793949,-0.09497704389272257,0.013005164520954713
1746650741407147500,1.3881474609375,-0.06636486178934574,-0.03615512656252831,0.025903987157181837
1746650741417112600,1.398112548828125,-0.06336392640769481,0.03355265244655311,0.017189934825734235
1746650741427078700,1.40807861328125,-0.056771104013919826,0.042027836254518475,-0.05929307393932249
1746650741437044700,1.418044677734375,-0.06978489936590195,-0.09119962597955018,-0.06875817753351293
1746650741447009800,1.428009765625,-0.06798983264267444,-0.23200092100137842,-0.022151616920297965
1746650741456975600,1.4379755859375,-0.0527291351467371,-0.21828376315301282,-0.04343741535807494
1746650741466941700,1.447941650390625,-0.07428221078515053,-0.09430698087774217,-0.03568910050295526
1746650741476906800,1.45790673828125,-0.03717325409650803,0.08743594433078541,-0.06054611990745179
1746650741486872600,1.46787255859375,-0.06395370899438858,0.2693834156680852,-0.07941709858872928
1746650741496839000,1.4778388671875,-0.06918693347275257,0.16615038367602974,-0.07066099264726508
1746650741506803700,1.4878037109375,-0.08533435067534446,0.051897579693421715,-0.03607164039700292
1746650741516769500,1.49776953125,-0.026080197674036024,0.07940121603300794,0.031645339254196735
1746650741526736000,1.50773583984375,-0.11124152987003326,0.10992463858518749,0.0345627907536109
1746650741536700700,1.51770068359375,-0.07040449256896972,0.03283228401644155,0.0383862968478119
1746650741546666500,1.52766650390625,-0.03808978441953659,-0.011631273218709975,0.032245275625435166
1746650741556632800,1.5376328125,-0.12292319983541965,0.01022016431177035,0.0319520625492325
1746650741566597600,1.54759765625,-0.025638299125432966,0.0268800062822178,0.0385321350592887
1746650741576563700,1.557563720703125,-0.08698153336048126,0.10705206055724993,-0.0004215555885399226
1746650741586529800,1.56752978515625,-0.05914601645171642,0.053953818103484805,-0.03353555974785704
1746650741596494600,1.57749462890625,-0.05824293013215065,0.05119381533823907,-0.026619483049353583
1746650741606461000,1.5874609375,-0.10566402199864387,0.033876788100693375,-0.05960671103233471
1746650741616426800,1.5974267578125,-0.016178396862745283,-0.06379795217709615,-0.0524941436473513
1746650741626391600,1.6073916015625,-0.08096212694048881,-0.04307648679092526,-0.02864833112899214
1746650741636358000,1.61735791015625,-0.03052665568888187,-0.014487448101118206,-0.010699670907424297
1746650741646323700,1.62732373046875,-0.07930500738322735,0.09982715080501511,0.026360103744093793
1746650741656288500,1.63728857421875,-0.11221826594769954,0.1101603835698217,0.04116564363434445
1746650741666254800,1.6472548828125,-0.022726211071014402,-0.015601236295606941,0.04094507795253303
1746650741676220700,1.657220703125,-0.062528060105443,-0.05695791355660185,0.030598990272730588
1746650741686185500,1.667185546875,-0.10427461346685886,0.08898912858953699,0.07867054540459066
1746650741696151800,1.67715185546875,-0.0501104770809412,0.16608073423961175,0.11125015156790613
1746650741706116600,1.68711669921875,-0.09051438366174697,0.06890778773780912,0.05817354555721394
1746650741716082700,1.697082763671875,-0.014796002593636512,-0.019011063005402683,0.006613570637570228
1746650741726048800,1.707048828125,-0.048749710121750826,-0.17431058325069024,-0.02840469509884715
1746650741736013600,1.717013671875,-0.05142798942029476,-0.19380036968374623,-0.022612501013872677
1746650741745980000,1.72697998046875,-0.058015551117062567,-0.14247797779608518,-0.0014883888085532816
1746650741755945700,1.73694580078125,-0.09648469024300575,-0.04786123684942722,-0.0036236252949252957
1746650741765910500,1.74691064453125,-0.10381634830534457,0.04024867948647588,-0.0022840772223993553
1746650741775876900,1.756876953125,-0.06684650782644748,0.05630332210538908,0.0015811887938180006
1746650741785842700,1.7668427734375,-0.03317512437105179,0.024741697345580904,0.06035529634335544
1746650741795807500,1.776807373046875,-0.07477087108492851,0.00037232217742130157,0.07551502224942669
1746650741805773800,1.78677392578125,-0.015676877081394196,-0.03633768005520105,-0.025349428864207584
1746650741815739600,1.79673974609375,-0.0839168850928545,-0.03550115616582334,-0.044105893770745024
1746650741825704700,1.80670458984375,-0.025996026521921158,-0.13563620387623085,-0.02945393015714362
1746650741835670800,1.8166708984375,0.037924949246644975,-0.16547491383356971,-0.021308144983614326
1746650741845636600,1.82663671875,-0.0485503881573677,-0.13504817485520615,-0.020388440889387856
1746650741855601700,1.8366015625,-0.13667992250919342,-0.11575763732129707,0.02133124958127737
1746650741865567700,1.846567626953125,-0.13010405125021934,0.0048193281815387306,0.05802348782834597
1746650741875533600,1.856533447265625,-0.14613164146542548,0.06151256291996687,0.04197295512896962
1746650741885499000,1.866498779296875,-0.059198623421788214,0.07105691032940521,0.023499252686568068
1746650741895464700,1.876464599609375,0.024157705178856848,0.023574681126512585,-0.003061755626341619
1746650741905430800,1.8864306640625,-0.020298107141256332,0.03191157070863992,-0.038542976113711484
1746650741915395800,1.896395751953125,-0.14630349090099334,0.03072111881505698,0.007686473124177427
1746650741925361700,1.906361572265625,0.0040653497427701945,-0.13480972645683215,-0.0713374762698775
1746650741935327700,1.91632763671875,-0.1143161150097847,-0.17071864143963902,-0.075852606473607
1746650741945292800,1.926292724609375,-0.07346212657392025,-0.03273465059455484,-0.02624590734647354
1746650741955258600,1.936258544921875,0.03952829279005527,-0.043474966322910036,0.029425215519312767
1746650741965224700,1.946224609375,-0.07344049926400184,0.021281583486963063,0.06900359452879055
1746650741975189800,1.956189697265625,-0.04663374088108539,0.08917654092041775,0.09580845321556553
1746650741985155600,1.966155517578125,0.02925707414448261,-0.005930887886323034,0.020461081433913203
1746650741995121700,1.97612158203125,-0.05018938753604889,-0.03400348322028294,0.0846049678217154
1746650742005086700,1.986086669921875,-0.16841010876893997,-0.003514419595431536,0.01584065965822665
1746650742015052800,1.996052734375,-0.08612696235775948,0.060718855259008706,0.03241870281344745
1746650742025018600,2.0060185546875,-0.1540741249024868,0.08732289414405822,-0.02990517192282714
1746650742034983700,2.015983642578125,-0.09826222130954265,0.15193815405340863,0.033137454675207845
1746650742044949800,2.02594970703125,0.022668927925825116,0.0965100438799709,-0.007684702433843631
1746650742054915600,2.03591552734375,0.06849018338024616,0.09487822316074743,-0.0017477489912707824
1746650742064880600,2.045880615234375,-0.02724164266884327,0.04542040130225941,0.008164266111713368
1746650742074846700,2.0558466796875,-0.02242225968837738,-0.0033553383098915215,0.028756465395295524
1746650742084811800,2.065811767578125,-0.079559274405241,-0.04094911937341094,0.014603297599707729
1746650742094777600,2.075777587890625,-0.14239713111221788,-0.05920421291235834,-0.03649664717630949
1746650742104743700,2.08574365234375,-0.1756149255812168,-0.05860611915504559,-0.0008925306762219406
1746650742114708700,2.095708740234375,-0.12831599878966807,-0.2041941369967535,-0.0469071875276044
1746650742124674800,2.1056748046875,-0.02175648925602436,-0.2591837278887629,-0.06826791436511558
1746650742134640600,2.115640625,0.013878303226828575,-0.24308782167769968,-0.07100705243884585
1746650742144605700,2.125605712890625,-0.049256490600109094,-0.1209732348114252,-0.028221609599923248
1746650742154571800,2.13557177734375,-0.16882979548573493,0.13013618168784305,0.031039091873180585
1746650742164537600,2.14553759765625,-0.24695523769557476,0.1415534468296915,0.01955500172295142
1746650742174502700,2.155502685546875,0.01220540157854557,0.29540454009864475,-0.03827332657618681
1746650742184468700,2.16546875,-0.028657354685664174,0.25545597606990483,-0.08223687785034998
1746650742194434600,2.1754345703125,-0.12533435263037682,0.07722929708771407,-0.04315543377865105
1746650742204399600,2.185399658203125,0.07008943527042866,-0.08541751718046144,-0.028532767041481565
1746650742214365700,2.19536572265625,0.0465899017393589,-0.09045750237535685,-0.016394777276495003
1746650742224331500,2.20533154296875,-0.20271394490897654,0.011755283190868795,-0.007780787786038126
1746650742234296800,2.215296875,-0.0960077203810215,0.005176525855064392,0.006453228976705577
1746650742244262700,2.2252626953125,-0.002616319978237152,0.06739632372893392,0.05616883183841127
1746650742254228500,2.235228515625,-0.04195172054469585,0.09576777414530516,0.06834339988727588
1746650742264193800,2.24519384765625,-0.11646131034493445,0.022028803391382096,0.044032737202988934
1746650742274159600,2.25515966796875,-0.10253741441071033,-0.07656206535063684,-0.01864491940701846
1746650742284125700,2.265125732421875,-0.022633856612443923,-0.09800961652165278,-0.04452484070202335
1746650742294090800,2.2750908203125,-0.08413783436715602,-0.02052230781856924,-0.01534372700373642
1746650742304056600,2.285056640625,-0.04927694886624813,-0.10359169097030535,-0.03882716791653074
1746650742314022700,2.295022705078125,-0.15926409476101397,-0.022256986124068498,0.05929102811270859
1746650742323987700,2.30498779296875,-0.047318216013908385,0.061851202023494985,0.09913242827281356
1746650742333953500,2.31495361328125,0.14199381100833416,0.047800793632771815,0.10935452881334348
1746650742343919900,2.324919921875,-0.064200961753726,0.013789894291013478,0.055928488310473035
1746650742353884700,2.334884765625,-0.21787994985878467,0.020818222025223074,0.05898385729310102
1746650742363850500,2.3448505859375,-0.02454407414793968,-0.20404480992024762,0.07076099155617412
1746650742373816800,2.35481689453125,0.024845687443017957,-0.2571353074589744,0.08066838642461224
1746650742383781600,2.36478173828125,-0.12689502607584,-0.11502017162591219,0.01462237675951328
1746650742393747700,2.374747802734375,-0.16130816780924795,-0.07625383965168148,-0.0038285498787881803
1746650742403712800,2.384712646484375,-0.001786298894882202,0.08045591271771117,0.07580290841325185
1746650742413678600,2.3946787109375,-0.020482231536507606,0.25322949565947056,0.07205748394038528
1746650742423644700,2.404644775390625,-0.10323357998132705,0.3138374744225293,0.0405041794843506
1746650742433609700,2.414609619140625,-0.1840408086210489,0.21279643604941664,0.013038062143558635
1746650742443575600,2.424575439453125,-0.12419628851115704,0.059042629142478105,-0.03493664501770399
1746650742453541600,2.434541748046875,0.035299276918172834,-0.10661816265201196,-0.09322958830404095
1746650742463506400,2.44450634765625,-0.09638590604364872,-0.11996727263927459,-0.030384721900965084
1746650742473472300,2.45447216796875,-0.03533960892856121,-0.04739427692480385,0.04201348806875758
1746650742483438600,2.4644384765625,-0.10626724858880042,0.21801344004534184,-0.037668287054856774
1746650742493403400,2.4744033203125,-0.04909107090532779,0.327656192949228,-0.08228681793930008
1746650742503369200,2.484369140625,-0.016151508855819702,0.2417761910898611,-0.10707117624967358
1746650742513335600,2.49433544921875,-0.06656476827561855,0.1982010157954879,-0.08460567107461392
1746650742523300400,2.50430029296875,-0.013439911809563635,0.06509655888658017,-0.06516967892171814
1746650742533266400,2.514266357421875,-0.08961889612674713,0.00021965236635878682,-0.05990101780379191
1746650742543232500,2.524232421875,-0.1439525438606739,-0.04034580145170912,-0.04483393405065871
1746650742553197300,2.534197265625,-0.061058572074770924,-0.18602765332302076,-0.015027059986710082
1746650742563163400,2.544163330078125,-0.0019318448454141615,-0.0996879615300335,0.050427155514410696
1746650742573129500,2.55412939453125,0.06229600491523742,0.01704423817815259,0.061612479630485176
1746650742583094300,2.56409423828125,-0.05215981082618236,0.22611608248017728,0.08432098151487298
1746650742593060600,2.574060546875,-0.1359492701470852,0.23656324221454558,0.06250035468118731
1746650742603026400,2.5840263671875,-0.07713876926004887,0.16080672109313307,0.05382653846200555
1746650742612991200,2.5939912109375,-0.043619361495971676,0.13654245026726275,0.012692308312654494
1746650742622957600,2.60395751953125,-0.045263037049770354,0.09018500557690859,0.0036760627308161926
1746650742632923400,2.61392333984375,-0.07160685409605502,-0.045342184966895724,0.0372984970445279
1746650742642888200,2.62388818359375,-0.10243687664568424,-0.14178133730143308,0.042895020143641154
1746650742652854500,2.6338544921875,-0.11830021620988845,-0.19576807129383086,0.06773700865907595
1746650742662820400,2.6438203125,-0.11095862127542495,-0.2366625744031742,0.008408463830861728
1746650742672785400,2.653785400390625,-0.058873629251122474,-0.18637025621561332,0.021447288592823313
1746650742682751500,2.66375146484375,0.017303016978502273,-0.13141195551101117,0.02836671487574931
1746650742692716300,2.67371630859375,0.03901040639579296,0.04525322804180905,-0.018171876801480538
1746650742702682400,2.683682373046875,-0.05644961697459221,0.17137454806510358,-0.018842053980892524
1746650742712648400,2.6936484375,-0.07500526436269282,0.17249195298878475,-0.14381823169020935
1746650742722613200,2.70361328125,-0.14789046783149243,0.11312540738787501,-0.11815852445056661
1746650742732579600,2.71357958984375,-0.1444622469484806,-0.061158908910397436,-0.07708355020778253
1746650742742545400,2.72354541015625,-0.051993806609511375,-0.16164991218531502,-0.046952478840900584
1746650742752510200,2.73351025390625,-0.03898410291075706,-0.24844235271448267,-0.017456643487501422
1746650742762476500,2.7434765625,-0.06772387518286704,-0.17257913808189332,0.019021604949014725
1746650742772442400,2.7534423828125,-0.10139408959448337,-0.0010918503573164344,0.020399211161863058
1746650742782407200,2.7634072265625,0.04017009782493114,0.05357260023355484,0.018781517149403223
1746650742792373500,2.77337353515625,-0.06427578055560589,0.053721324521861964,-0.03679524424710544
1746650742802339300,2.78333935546875,-0.10901508599221706,-0.12772009698944164,-0.08983647526702843
1746650742812304400,2.793304443359375,-0.06681669721007347,-0.10309092010762543,-0.029058989722537808
1746650742822270500,2.8032705078125,-0.05425298371315002,0.10589202206823974,0.025807020455575546
1746650742832236300,2.813236328125,-0.027779987329244613,0.10362827838733792,0.03447816522705834
1746650742842201300,2.823201416015625,-0.04709375960826873,0.032393746468704195,0.04013037316931877
1746650742852167400,2.83316748046875,-0.10216215135753154,-0.04827297772178426,0.02663063919760752
1746650742862133500,2.843133544921875,-0.12999942183196544,-0.08663578866273164,0.01855075886714039
1746650742872098600,2.8530986328125,-0.03647767304778099,-0.1778667413623072,0.01864302427745424
1746650742882064400,2.863064453125,-0.01897182697355747,-0.22357934881048275,0.02412700407991651
1746650742892030500,2.873030517578125,0.0033270985960960385,-0.05052335046445951,0.026497578269313087
1746650742901995500,2.88299560546875,-0.043351650470495225,-0.04956219554841518,-0.03821296327463351
1746650742911961300,2.89296142578125,-0.1563186889588833,-0.13101893760543315,-0.0914050488911569
1746650742921927400,2.902927490234375,0.039112697726488115,-0.21681122464872896,-0.03746571597075089
1746650742931892500,2.912892578125,-0.08075462166965007,-0.1811338351331651,0.008243704006494953
1746650742941858300,2.9228583984375,-0.1531891587615013,-0.1878679839600809,-0.0055364178091753275
1746650742951824400,2.932824462890625,-0.12805588654875755,-0.2359657147128135,0.010465005918312818
1746650742961789400,2.94278955078125,0.06750935564935207,0.03612752616954967,0.08560991621371358
1746650742971755500,2.952755615234375,-0.10353110162317752,0.18174363759458065,0.08491084629995747
1746650742981720300,2.96272021484375,-0.1023299091398716,0.14686030279984696,0.036354459943354595
1746650742991686400,2.972686279296875,0.08396949206292628,0.12376034477930516,0.05539735884214751
1746650743001652500,2.982652587890625,-0.040537177571654315,0.21820368365412576,-0.039125429343897844
1746650743011617500,2.992617431640625,-0.17192600793540477,0.21165822579972446,-0.1182298452542629
1746650743021583400,3.002583251953125,-0.0320242007702589,-0.07778501300802454,-0.10406118991188705
1746650743031549400,3.012549560546875,-0.14635668239295482,-0.13528322572009638,-0.026984503269731064
1746650743041514500,3.022514404296875,-0.019314941322803498,-0.10698303217533975,-0.016341167942713945
1746650743051480300,3.032480224609375,-0.1135749412536621,0.14773527726978064,0.08603791410112753
1746650743061446400,3.0424462890625,0.005251929178833961,0.289027022689674,0.07878056338401511
1746650743071411500,3.052411376953125,0.023521160840988157,0.36403109974227843,0.02511257648458704
1746650743081377500,3.06237744140625,-0.05921323646903038,0.29458505867561324,-0.0742924079521792
1746650743091343400,3.07234326171875,-0.0949661023736,0.0693967220322229,-0.1074231588919647
1746650743101308400,3.082308349609375,-0.02119476372003555,-0.20651094430545344,-0.13142304316060616
1746650743111274500,3.0922744140625,0.0034907647252082822,-0.3999680900420993,-0.12943097429424524
1746650743121240300,3.102240234375,-0.13088438797295093,-0.4150896713282913,-0.1565443509409204
1746650743131205400,3.112205322265625,-0.13042904542088507,-0.20540333012342452,-0.04075755602379795
1746650743141171500,3.12217138671875,-0.08702244989275931,0.12636059040557593,0.08783259723186493
1746650743151137300,3.13213720703125,-0.08057225084006786,0.2789414810756221,0.08055756472758949
1746650743161102300,3.142102294921875,-0.05257774397730827,0.26671660761162636,0.035431383431819265
1746650743171068400,3.152068359375,-0.022350363495945928,0.28380322362678123,0.05948888877236749
1746650743181034200,3.1620341796875,-0.11932312951683997,0.26859688666658477,0.08469502985849976
1746650743190999600,3.17199951171875,-0.09778758953511714,0.20283037436287848,0.06057632324947044
1746650743200965400,3.18196533203125,0.021911387556791305,0.17422217431487513,0.0959314402744174
1746650743210931200,3.19193115234375,-0.053663785648345945,0.12786111289532853,0.0663042130767135
1746650743220896500,3.201896484375,-0.14449147304296492,0.054430294775124635,0.021062264480744487
1746650743230862300,3.2118623046875,-0.06532675091326236,-0.02180023706620559,0.03634489981385414
1746650743240828400,3.221828369140625,0.018929741397500036,-0.07802338834116235,0.07408542327114846
1746650743250793500,3.23179345703125,-0.016374796217679975,-0.04881475644828751,0.04907746707166079
1746650743260759300,3.24175927734375,-0.12455343138575553,-0.030299294940102844,0.003298762984178029
1746650743270725400,3.251725341796875,-0.11287293046414852,-0.1524651370695792,-0.0019503212170209735
1746650743280690400,3.2616904296875,-0.07351648710966109,-0.2530422294590622,0.031115157350653316
1746650743290656300,3.27165625,-0.10793898119330406,-0.24584212535452096,0.004998509256902616
1746650743300621600,3.28162158203125,-0.1501566591978073,-0.10914141578562557,0.0034529808649327604
1746650743310587400,3.29158740234375,-0.11965104629695415,0.03322259850827977,-0.007905615175527054
1746650743320553200,3.30155322265625,0.008734510597586632,0.07148063390050083,-0.025434426566807087
1746650743330518500,3.3115185546875,0.15344927100241185,0.15248753156447784,-0.00038301025150576606
1746650743340484400,3.321484375,0.0653296735227108,-0.043273561999294906,-0.09643510634708218
1746650743350450400,3.331450439453125,-0.0850584563434124,-0.47939102471657097,-0.1753030100878328
1746650743360415500,3.34141552734375,-0.1992430539280176,-0.8878400889866054,-0.20939404372740536
1746650743370381300,3.35138134765625,-0.12219839269220828,-0.830126443425566,-0.11515013641482219
1746650743380347400,3.361347412109375,-0.12431027027964592,-0.33130353647563604,0.005972474563814467
1746650743390312400,3.3713125,-0.0848188023686409,0.1802679938177578,0.03519709975190926
1746650743400278300,3.3812783203125,0.003472644546627998,0.17257234301492572,0.02883436435353942
1746650743410244400,3.391244384765625,0.06184475401639938,0.5158216437522322,0.06831552093308418
1746650743420209400,3.40120947265625,-0.10468903948664665,0.45400765020027756,-0.0719068325564731
1746650743430175200,3.41117529296875,0.044219080954790116,0.19440209843656048,-0.17509563268115744
1746650743440141300,3.421141357421875,0.008017302238941192,-0.1490510908423923,-0.23415934114428236
1746650743450106400,3.4311064453125,-0.04735211828351021,-0.20368441564263776,-0.2025341313626617
1746650743460072400,3.441072509765625,-0.13833236589133738,-0.18292460927376522,-0.08307057959497906
1746650743470039000,3.4510390625,-0.18561317250430584,-0.06339357262728736,0.054123329451493916
1746650743480004000,3.461004150390625,-0.057822074371576306,0.19085651651788502,0.19094490718739107
1746650743489970000,3.470969970703125,-0.09986264224350452,0.3198629452571273,0.19841527960067615
1746650743499936000,3.48093603515625,-0.018750293177366255,0.17433653967585414,0.0929404600312002
1746650743509901000,3.490901123046875,-0.04552957903146743,0.18749485806506125,0.09177482291846535
1746650743519867000,3.500866943359375,-0.07919687083363533,0.29010341974953185,0.11866577985296026
1746650743529833000,3.5108330078125,-0.02487958971261978,0.08651144989700987,0.03777035690655466
1746650743539798000,3.520798095703125,-0.056304071024060244,-0.2083787840039469,-0.0018305992609122766
1746650743549763800,3.530763916015625,-0.07201718846261501,-0.26488964791279285,0.020632976535253693
1746650743559730200,3.540730224609375,-0.15730360834300516,-0.16687842395594343,0.0260688474462484
1746650743569695000,3.550695068359375,-0.11464461631178856,0.022853070587385445,0.06605992402601987
1746650743579661000,3.5606611328125,-0.019327800804376603,0.34506730994470414,0.04230830629686825
1746650743589626000,3.570626220703125,-0.16357845082879066,0.3908075360521674,0.003357110141869634
1746650743599592000,3.580592041015625,-0.053285015463829036,0.29963149187760424,0.04142145872605033
1746650743609558000,3.59055810546875,0.06822656400799751,0.041230621462222186,-0.003930850342637859
1746650743619523000,3.600523193359375,-0.043864276167750356,-0.006902564196381717,0.018740169075573795
1746650743629489000,3.610489013671875,-0.15311726256906985,0.04348590784203261,0.029435273405734912
1746650743639455000,3.620455078125,-0.0627455022484064,-0.10195744083197787,0.03507888704958605
1746650743649420000,3.630419921875,-0.03580839548408985,-0.24302332334043455,-0.00071679280011449
1746650743659385900,3.6403857421875,-0.014694295784831047,-0.2715607049082406,-0.04490187558718026
1746650743669352000,3.65035205078125,-0.033681904849410055,-0.22984005317306144,-0.04177720879458356
1746650743679317000,3.66031689453125,-0.030528409254550932,-0.26594315728740764,-0.04895255748378113
1746650743689283000,3.670282958984375,-0.0644926381766796,-0.26892518703918905,-0.027110164059570525
1746650743699249200,3.680249267578125,-0.040992520123720164,-0.3194890704434365,-0.07474405614323913
1746650743709214000,3.6902138671875,0.0417623354524374,-0.6432697006009519,-0.20691273003937674
1746650743719180000,3.700179931640625,0.07722644754350184,-1.0659046727422625,-0.2768046151774004
1746650743729146000,3.71014599609375,-0.039943303331732745,-1.3005733333818614,-0.4487618585012853
1746650743739111000,3.72011083984375,-0.01361526837646961,-1.0151095013327895,-0.4095671815797686
1746650743749077000,3.730076904296875,-0.08409399522542953,-0.4391074565798044,-0.24877520139804107
1746650743759043000,3.74004296875,-0.2672434079647064,-0.003287899096868932,-0.1957743183715269
1746650743769007900,3.7500078125,-0.1422971778690815,0.4176154634788632,-0.1284535258305259
1746650743778974000,3.759973876953125,-0.09665303254723548,0.6167850137792528,-0.0038639545523095876
1746650743788940000,3.76993994140625,-0.09260580298304558,0.34407559549361466,-0.00026392076634801923
1746650743798905000,3.779905029296875,-0.017037644040584565,0.0951521447313018,0.10445906665567307
1746650743808871000,3.789870849609375,-0.1282242288529873,-0.23550295603927224,0.13472437712778337
1746650743818837000,3.7998369140625,-0.17266776621341703,-0.3399950481817126,0.1207159721147269
1746650743828802000,3.809802001953125,0.006604512831568717,-0.35315417028851803,0.07187026340574958
1746650743838768000,3.81976806640625,-0.0068657941162586205,-0.22708744826298205,-0.0070878393691033124
1746650743848734200,3.829734130859375,-0.0782394239783287,-0.017999840136244893,-0.005168105086591095
1746650743858699000,3.839698974609375,0.0621229864358902,0.21786701731197536,0.021338204478449186
1746650743868665000,3.8496650390625,-0.13733517154753208,0.3401989001907408,-0.05392367412697058
1746650743878631200,3.859631103515625,0.031305823367834086,0.29529187350440766,-0.02869219310360495
1746650743888596000,3.869595947265625,-0.12117197225391864,0.10815932767940685,0.05771923505160957
1746650743898562000,3.87956201171875,-0.07509644977748393,-0.07028725939746945,0.03746506751677953
1746650743908527000,3.889527099609375,-0.1936269676119089,-0.037252639475651085,0.051759372232551684
1746650743918493000,3.899492919921875,-0.11776596320271492,0.0883678366197273,0.09591658976515754
1746650743928459000,3.909458984375,0.1174573356449604,0.31082145106960085,0.13975302807791157
1746650743938424000,3.919424072265625,-0.15834581087231636,0.7975540341880172,0.3145657521644607
1746650743948390000,3.929389892578125,-0.2441127077460289,0.9754499833784996,0.4182721738219261
1746650743958356200,3.939356201171875,-0.016820201897621154,0.9194397807344794,0.4037026734605431
1746650743968321000,3.949321044921875,0.09720657477676868,0.6563350800096989,0.1514538046025671
1746650743978287000,3.959287109375,0.058458618709445,0.18626566332997754,0.023437804822914767
1746650743988253200,3.969253173828125,-0.06843406927883625,-0.01397758061653003,-0.01920353053731378
1746650743998218000,3.979218017578125,-0.14638883109688758,-0.056703098545316605,0.0873631256897468
1746650744008184000,3.98918408203125,0.02091302416920662,-0.14660009922739117,0.19773266763137654
1746650744018150100,3.999150146484375,-0.1074661029845476,-0.16296446538260206,0.1524937238432467
1746650744028115000,4.009114990234375,-0.1198836860090494,-0.1486743299518712,0.0910964943986386
1746650744038081000,4.0190810546875,-0.09400982456207276,-0.013718491288926452,0.014326976292801554
1746650744048047000,4.029047119140625,-0.16674772851467132,0.08148132850900291,-0.11194675552994013
1746650744058012000,4.039011962890625,0.00024608371555805207,0.11379241992924362,-0.2664852465411648
1746650744067978200,4.048978271484375,0.031661212676763535,0.04733905787253752,-0.26587425676966087
1746650744077944000,4.058944091796875,-0.17394319297671318,0.010802786505315453,-0.2357713246518746
1746650744087908900,4.068908935546875,0.011455459994077682,0.17598324743695556,-0.024930648612999356
1746650744097875200,4.078875244140625,-0.12802607593238352,0.2633481175592169,0.09577509893523528
1746650744107841000,4.088841064453125,-0.1709866812586784,0.15488916761241853,0.13798044718112795
1746650744117806000,4.09880615234375,0.003323591464757919,0.09470750623634085,0.1701547970118001
1746650744127772200,4.108772216796875,-0.08033025877773761,-0.022654661938454956,0.058572445214306934
1746650744137738000,4.118738037109375,-0.022258593559265134,-0.1020210441200994,0.04154561939525883
1746650744147703000,4.128703125,-0.0014537059396505356,0.029299123187921938,0.015446481842023786
1746650744157669000,4.138669189453125,-0.08119885830581187,-0.038968722678534684,-0.14591617208383978
1746650744167635000,4.148635009765625,0.0002326397120952606,-0.08826866882788018,-0.20115871482361106
1746650744177600300,4.158600341796875,-0.005855155768990516,-0.16598313735034315,-0.09339484360204078
1746650744187566000,4.168566162109375,0.0004652794241905212,0.06047772171320393,-0.06309560802744235
1746650744197531000,4.17853076171875,-0.09828443314135074,0.3224034965854138,0.003734791768531431
1746650744207497200,4.188497314453125,-0.18657588005661963,0.33010932172238827,0.03761511382920434
1746650744217463000,4.198463134765625,-0.08827274221479892,0.20441318657491356,0.06060759060399141
1746650744227427800,4.208427734375,-0.1297352179378271,0.051712925575207916,0.10119620153536088
1746650744237394200,4.218394287109375,-0.14006488877236842,-0.1372074717809446,0.11482780912527814
1746650744247360000,4.228360107421875,0.08723755394816399,-0.20082833209177478,0.026758275032113303
1746650744257325000,4.238324951171875,0.0006067337214946747,0.03943444049414247,-0.01681874059289694
1746650744267291100,4.248291015625,-0.004912321960926056,0.11329963144361972,-0.0640956245159963
1746650744277257000,4.258257080078125,-0.06863222219944,0.02798519104514271,-0.040228486081818116
1746650744287222000,4.268221923828125,-0.0641138679921627,-0.07781031184606253,-0.056031405262253246
1746650744297188000,4.27818798828125,-0.03207446965277195,0.017743527287617324,-0.04748600119571201
1746650744307154000,4.28815380859375,-0.1721387739032507,0.023656148864887653,-0.09653836579215712
1746650744317119200,4.298119140625,-0.14864391654729842,-0.0325976715429686,-0.053696409276314076
1746650744327085000,4.3080849609375,0.030618425625562665,0.1643647971672006,0.04360994521365501
1746650744337051000,4.31805078125,-0.09538812717795371,0.20753488052571192,0.05530435592960566
1746650744347016200,4.32801611328125,-0.240848737514019,0.18166472713947296,0.062306517176097254
1746650744356982000,4.33798193359375,-0.05081541047990322,0.1795019961476326,0.040772749026352535
1746650744366948000,4.347947998046875,0.05271452209949493,-0.051222036785725504,0.046167123449756764
1746650744376913200,4.3579130859375,-0.19212123922407626,-0.24979420571485533,0.02468545081343036
1746650744386879000,4.36787890625,-0.11478080991208553,-0.48606246530450875,0.0858156131199561
1746650744396845000,4.377844970703125,0.042936639928817744,-0.49323754456564783,0.12925291431359945
1746650744406810000,4.38781005859375,0.11104805312454699,-0.3496675702817738,0.15178305482324211
1746650744416776000,4.39777587890625,0.08459960666000843,-0.19333098034001886,0.056677082754648285
1746650744426742000,4.407741943359375,-0.019364041161537168,-0.02785502532683313,0.010921462715230881
1746650744436707000,4.41770703125,-0.1050964512437582,0.05240666172672063,-0.09171434316919184
1746650744446673000,4.4276728515625,-0.27314532548487186,0.33369423100445417,-0.16874032710399478
1746650744456639000,4.437638916015625,-0.08925999968647956,0.24429646681509912,-0.14146543061952105
1746650744466603800,4.447603759765625,-0.13822422934174536,0.03178871151395142,-0.0860425172110088
1746650744476569600,4.457569580078125,-0.10580430725216865,-0.1229661256616935,-0.05086377509969752
1746650744486534700,4.46753466796875,-0.1488017374575138,-0.18850050970995796,-0.009621758885559393
1746650744496500700,4.477500732421875,-0.03929448403418064,-0.16076279061986132,0.010812338643305702
1746650744506466600,4.487466552734375,0.09149754948019981,-0.0694048322734423,0.03750119827608578
1746650744516431600,4.497431640625,0.05829495258033275,0.23668677726266904,-0.025277564637816975
1746650744526397700,4.507397705078125,-0.06378653573393821,0.5667332811482251,-0.026542154913267585
1746650744536363500,4.517363525390625,-0.0386164386421442,0.497113326553069,-0.013924285234935814
1746650744546328600,4.52732861328125,-0.0333662630289793,0.3034734629269689,-0.04408910246614832
1746650744556294700,4.537294677734375,-0.1809217998176813,0.1152369561817497,-0.04964032511881087
1746650744566260500,4.547260498046875,-0.19082360062897205,-0.05869703057520091,-0.020579431133554316
1746650744576225800,4.557225830078125,-0.09508066866397857,-0.1906481527305208,0.005849407589860493
1746650744586191600,4.567191650390625,-0.04018763348162174,-0.16363993522506207,0.012627830524987074
1746650744596157400,4.577157470703125,-0.0671329235523939,-0.20395092109171672,-0.0037065297926717903
1746650744606122800,4.587122802734375,-0.006349661287665367,-0.23681683338312431,0.003778222201592871
1746650744616088600,4.597088623046875,0.08855214367806911,-0.027142511409614233,-0.04241087618877645
1746650744626054700,4.6070546875,-0.08649988732337952,0.2453704892547801,-0.05173172160722315
1746650744636019700,4.617019775390625,-0.08183890977501869,0.2574218510490842,-0.011156222460820571
1746650744645985500,4.626985595703125,-0.05849076741337776,0.036778811418823894,0.03577668973815162
1746650744655951600,4.63695166015625,-0.1628010367155075,-0.12932364146225153,0.036985839482338634
1746650744665916700,4.646916748046875,-0.11149813497960567,-0.23589873215751722,-0.002478289757647144
1746650744675882500,4.656882568359375,-0.09327683411240577,-0.16505436860024927,-0.0445698762869928
1746650744685848800,4.666848876953125,-0.1169604920387268,-0.22196973992306737,-0.0750673104479676
1746650744695813600,4.676813720703125,-0.05905600008070468,-0.156096095716767,-0.09227310042995959
1746650744705779500,4.686779541015625,0.14086042306423185,-0.03154050890654325,-0.09826043121125548
1746650744715745800,4.696745849609375,-0.1437386088490486,0.03769658385086804,-0.10697361589302308
1746650744725710600,4.706710693359375,0.026253216153383253,0.08575712439836934,-0.0667710314374417
1746650744735676700,4.7166767578125,-0.05529752433001995,0.1073016514041461,0.001691359753580764
1746650744745642800,4.726642822265625,-0.023738602983951567,0.015152195620164274,0.00516295969565981
1746650744755607600,4.736607666015625,-0.14571078570485113,-0.2042906196411699,-0.010896385356190148
1746650744765573600,4.74657373046875,-0.09245090468227862,-0.22913146651228888,0.06332705586287192
1746650744775539700,4.756539794921875,0.02531096686720848,-0.12098452339041978,0.048218612619466146
1746650744785504500,4.76650439453125,-0.05399930121302604,0.03009843860575929,0.007642679648223565
1746650744795470600,4.776470703125,-0.0743488462805748,0.08361812134198844,-0.03490655127353966
1746650744805436700,4.786436767578125,-0.061028761458396905,0.09816235939795151,-0.030228620307089293
1746650744815401500,4.7964013671875,-0.06910510040819645,0.026156897905748336,-0.04822427060869522
1746650744825367800,4.806367919921875,-0.05892682074308395,0.011595927910692989,0.0015515003333857749
1746650744835333600,4.816333740234375,-0.022864742758870123,0.07827666898248717,0.07886683516167103
1746650744845298700,4.826298583984375,-0.08377659983932971,0.058195857853721826,0.05408663243660703
1746650744855264800,4.8362646484375,-0.0825876823157072,0.045529560765158385,0.04484951521228067
1746650744865229600,4.8462294921875,-0.0800432585299015,0.04429148860387504,-0.005096183777984697
1746650744875195600,4.856195556640625,-0.059089902350306506,0.0382448105844669,-0.024980287307850083
1746650744885161700,4.86616162109375,-0.030801965498924253,-0.0417410917350091,-0.03171443613476586
1746650744895126500,4.87612646484375,-0.08167173651456833,0.13154895282890647,0.030078797756950368
1746650744905092600,4.886092529296875,-0.06984101346731185,0.07340999452788383,-0.05478660653266124
1746650744915058700,4.89605859375,-0.06204407598078251,-0.07175477466676383,-0.039716549937729724
1746650744925023500,4.9060234375,0.007407061386108398,-0.24268738765064626,-0.02447151580180507
1746650744934989600,4.915989501953125,-0.028791210198402403,-0.38793928713947534,-0.026890682939859106
1746650744944955600,4.92595556640625,-0.09013736704289912,-0.2603611559039913,-0.005544982424832414
1746650744954920700,4.935920654296875,-0.07280220136046409,-0.29420497331684453,-0.09709553388403729
1746650744964886800,4.94588671875,-0.23428864834606647,-0.21834227014090865,-0.010694866868143435
1746650744974852600,4.9558525390625,-0.024789573341608046,-0.12181905625211074,0.061877715571084985
1746650744984817700,4.965817626953125,0.0926695158690214,-0.13016116999862715,0.03356798016313696
1746650744994783700,4.97578369140625,-0.1665033983647823,0.042990288078505544,0.030888314908393655
1746650745004749600,4.98574951171875,0.039543490359187125,-0.06091320878732949,-0.020159379090578293
1746650745014714600,4.995714599609375,-0.05967150163054466,-0.27787695711664856,-0.09743578042276203
1746650745024680700,5.0056806640625,-0.03167816381156444,-0.27260667029721664,-0.14264754394302143
1746650745034646800,5.015646728515625,0.00019523031115531922,-0.3045827576094307,-0.14763559802128
1746650745044611600,5.025611572265625,-0.12161562436819076,-0.22842781175496055,-0.10778420162354595
1746650745054577700,5.03557763671875,-0.07537409767508506,-0.1148545510017313,-0.1276518723251298
1746650745064543700,5.045543701171875,-0.02973287496268749,-0.09486890734313055,-0.06745665278115776
1746650745074508500,5.055508544921875,-0.08493804483413696,0.18228057574918494,0.02410757786023896
1746650745084474600,5.065474609375,-0.028369769915938377,0.29083931454233825,0.006964393369236495
1746650745094440700,5.075440673828125,-0.10948504159152507,0.3329714331552386,0.04645305055193603
1746650745104405800,5.08540576171875,-0.10694880111217499,0.07983376223137602,0.02586122344440082
1746650745114371600,5.09537158203125,-0.0207569568246603,-0.4546837593635544,-0.02166725833630189
1746650745124337700,5.105337646484375,-0.021510405540466307,-0.11058737681023775,0.08610256770201959
1746650745134302700,5.115302734375,-0.14824293453097342,0.3368456442400813,0.09188274027234875
1746650745144268800,5.125268798828125,0.01232347500026226,0.3107211325002834,0.08762770404322072
1746650745154234600,5.135234619140625,-0.11874737545549868,0.39552806176804006,0.03483761193988612
1746650745164199700,5.14519970703125,-0.04406242908835411,0.3144806676968932,0.03986486323408316
1746650745174165800,5.155165771484375,-0.09088438601791858,0.2785297767358832,0.0811426528728567
1746650745184130600,5.165130615234375,-0.05930851353704929,0.2486426427932456,0.10965646176883019
1746650745194096600,5.1750966796875,-0.1342892279803753,0.21505891935499383,0.08572968840217217
1746650745204062700,5.185062744140625,-0.04151566721498966,-0.003618026100378483,0.0008906078617830644
1746650745214027500,5.195027587890625,-0.07411912917792797,-0.03344446109803393,-0.02024640435348265
1746650745223993600,5.20499365234375,0.004455810365080833,-0.08050806303005666,0.016294188137474703
1746650745233959700,5.214959716796875,-0.09458382505774497,0.031407055252604184,-0.03359625640955055
1746650745243924700,5.2249248046875,-0.07481295666098595,0.047181200429704036,-0.030757238157920072
1746650745253890800,5.234890869140625,-0.046369536986947055,0.25806743720993397,-0.014691432540887034
1746650745263856600,5.244856689453125,-0.04949731361865997,0.23763982193749397,0.03007599387851078
1746650745273821700,5.25482177734375,-0.06983575277030468,0.15704731376068665,0.007705648752927664
1746650745283787800,5.264787841796875,-0.060409752777218814,0.019263960054237396,-0.0029278495958424172
1746650745293753600,5.274753662109375,-0.07073357839286327,-0.11694856413891538,-0.04257093015527352
1746650745303718700,5.28471875,-0.06699146925508975,-0.19347964982939883,-0.02270856809975812
1746650745313684700,5.294684814453125,-0.03631459144055843,-0.2458940930037759,0.038251891062513456
1746650745323650600,5.304650634765625,-0.10185293927788734,-0.08098404651135206,0.09412099331896752
1746650745333615600,5.31461572265625,-0.061738371032476425,0.08832467333143576,0.045683509217854586
1746650745343581700,5.324581787109375,-0.059628247010707854,0.1685631621724926,-0.08114399544657208
1746650745353547500,5.334547607421875,-0.042857729473710054,0.2549905505152419,-0.1072348697782494
1746650745363512800,5.344512939453125,-0.05227905329167842,0.27117221704730765,-0.027389711653313133
1746650745373478700,5.354478759765625,-0.0563192685931921,0.20232779513560234,-0.021762864197883754
1746650745383444500,5.364444580078125,-0.1066039331972599,0.13274892146950587,0.020936311429960185
1746650745393409800,5.374409912109375,-0.07429331670105457,-0.019682094134762882,0.04834627128685824
1746650745403375600,5.384375732421875,-0.07474749020934104,-0.11205385089991614,0.00829487421719532
1746650745413341700,5.394341796875,-0.04017828113138675,-0.27244501346210015,0.011865556898619978
1746650745423306800,5.404306640625,-0.05618482855856418,-0.24945819695983082,0.019015055335575015
1746650745433272600,5.4142724609375,-0.0774251849859953,-0.20779285560846328,0.0174963179107639
1746650745443238700,5.42423876953125,-0.033275077614188193,-0.19852263069897888,0.03643080398204038
1746650745453203700,5.43420361328125,-0.04763502687811851,-0.045551644732803105,0.027283031841868068
1746650745463169500,5.44416943359375,-0.05555880561470985,-0.04675588768972084,-0.036266868424869605
1746650745473136000,5.45413623046875,-0.051070262023806566,-0.0708313214126043,-0.0656337390697794
1746650745483101200,5.46410107421875,-0.07876257106959819,0.03721879200497642,-0.09531433128938079
1746650745493067300,5.4740673828125,-0.08520867846906184,0.0604997508819215,-0.08979350377498194
1746650745503033000,5.484033203125,-0.038083939200639724,0.02672048660526052,-0.11546346754715778
1746650745512998100,5.493998046875,-0.025674539482593534,0.02795401045558974,-0.08665697758123278
1746650745522964200,5.503964111328125,-0.041697453522682185,0.16677479918468743,-0.00310189584048494
1746650745532930000,5.513929931640625,-0.10096095887422561,0.18818744343910365,0.07092725150117185
1746650745542895000,5.52389501953125,-0.043806408500671384,0.17877410199819133,0.06882982256419491
1746650745552861200,5.533861083984375,-0.04127250610888004,0.22665342249358073,0.058704944453597994
1746650745562827000,5.543826904296875,-0.08586801916062832,0.2893748132140376,-0.005168637663664413
1746650745572792000,5.5537919921875,-0.045914778956770895,0.20286599366553126,-0.06275760824473109
1746650745582758100,5.563758056640625,-0.07165361584722996,0.06062277447339147,-0.0641472268390702
1746650745592724000,5.573723876953125,-0.03574000642299652,-0.11134500851081684,-0.05979346120951231
1746650745602689300,5.583689208984375,-0.06925356896817683,-0.1929978393955156,-0.038220331447047645
1746650745612655000,5.593655029296875,-0.05039046306610107,-0.24800693870559334,-0.05093143350842874
1746650745622621200,5.60362109375,-0.05621931535005569,-0.09988536553196609,-0.02302455926334951
1746650745632586200,5.613586181640625,-0.07416705997288227,0.10964404981182888,-0.014359570238017476
1746650745642552000,5.623552001953125,-0.07849135291278361,0.09983067620266228,-0.015468732489738613
1746650745652517000,5.63351708984375,-0.05379238046407699,0.027167481454089284,0.015468493886076611
1746650745662483200,5.643483154296875,-0.05288637153506279,-0.09829515546476468,-0.03601801279691281
1746650745672449000,5.653448974609375,-0.03223579769432545,-0.1798801452776417,-0.026326900160813238
1746650745682414000,5.6634140625,-0.0693505996018648,-0.0011550883192569016,0.05783769206581637
1746650745692380200,5.673380126953125,-0.09763970549702644,0.026577918063104153,0.011272427010792306
1746650745702346000,5.683345947265625,-0.07340075177550315,0.03625862346962094,0.009781131290399935
1746650745712311300,5.693311279296875,-0.06352350088357925,-0.1491859144695103,-0.02967687730899779
1746650745722277000,5.703277099609375,-0.04182078764140606,-0.2787325875652954,-0.041582768501294776
1746650745732243000,5.713242919921875,-0.04675649047791958,-0.117682467904035,-0.045584711318765764
1746650745742208300,5.723208251953125,-0.06456687245666981,0.14450436905715613,0.003012631242255156
1746650745752174000,5.733174072265625,-0.09599486089944839,0.46954321911484,0.08239147475701757
1746650745762140200,5.74314013671875,-0.03524024020731449,0.4657418175378814,0.033258537471340964
1746650745772105200,5.753105224609375,-0.08521335464417934,0.3487628399943933,-0.01649109324084129
1746650745782071000,5.763071044921875,-0.05438099400699138,0.16992173717459663,-0.02417362655048491
1746650745792037400,5.773037353515625,-0.052587680849432945,0.030414555350225417,-0.010318290924001484
1746650745802002200,5.783002197265625,-0.08746434844136237,-0.0071027629435993726,-0.005909580236813053
1746650745811968000,5.792968017578125,-0.06651800652444362,-0.010255199092533439,-0.002765883375116391
1746650745821934300,5.802934326171875,-0.049455228042602536,-0.010007106082979588,-0.0021896940618797087
1746650745831899100,5.812899169921875,-0.04719079024195671,-0.016154851590376346,-0.026707355412340254
1746650745841865000,5.822864990234375,-0.05495031832754611,-0.009812990016676485,-0.016824677143339066
1746650745851831300,5.832831298828125,-0.0553781883507967,-0.01630549384113401,-0.009354870414812467
1746650745861796000,5.842796142578125,-0.04473462926149368,-0.010329652568232267,-0.0015809666012930393
1746650745871762000,5.852761962890625,-0.03409925347864628,-0.02118928382731974,-0.013602928343060193
1746650745881728300,5.862728271484375,-0.0765922412931919,-0.013040098837018012,-0.015570508938847342
1746650745891693000,5.872693115234375,-0.0789934572160244,-0.00671193699510768,-0.02113453969908878
1746650745901659100,5.8826591796875,-0.11566051535606384,-0.00597757657226175,-0.009606051001418382
1746650745911625200,5.892625244140625,-0.059254153001308436,-0.020005553935468195,0.01751549525198061
1746650745921590000,5.902590087890625,-0.1054839892566204,-0.012895667131338268,-0.004393729745065502
1746650745931556400,5.912556396484375,0.03877367503046989,-0.01310806777300313,0.017127451490686507
1746650745941522200,5.922522216796875,-0.07359715113043784,-0.01689388818833977,0.002973235665616812
1746650745951487000,5.932487060546875,-0.06580547434091567,-0.00937123759854585,-0.004934429332279251
1746650745961453300,5.942453369140625,0.0019908815562725067,-0.01535502471588552,0.0011867575325770303
1746650745971419100,5.952419189453125,-0.07521686128675938,0.0012128829210996627,-0.013604560894431779
1746650745981384000,5.962384033203125,-0.07311492057144642,-0.007306468822155148,-0.01289829976313049
1746650745991350300,5.972350341796875,-0.0665279433965683,-0.0107443708489649,-0.0006754652758827433
1746650746001316000,5.982316162109375,-0.11442308251559734,-0.012350728333368897,-0.005820526271959533
1746650746011281200,5.99228125,-0.13957915108203886,0.004544365431368351,0.1381509357766714
1746650746021247200,6.002247314453125,-0.040975568988919256,-0.009113043320085853,0.34133396863527593
1746650746031213000,6.012213134765625,-0.04532382732629776,-0.015102310330141335,0.3087024861542508
1746650746041178000,6.02217822265625,-0.04233282881677151,-0.002293499498348683,0.2861042671107687
1746650746051144200,6.032144287109375,-0.028871289697289464,-0.017687888110242782,0.17154234238006175
1746650746061110300,6.0421103515625,-0.09696107558310031,-0.04363234884170815,-0.03268312133671716
1746650746071075300,6.052075439453125,-0.05461655632853508,-0.1021520135560073,-0.17117866016682237
1746650746081041200,6.062041259765625,-0.013760814327001571,-0.139479380501993,-0.07552126476054545
1746650746091007200,6.07200732421875,-0.0577525162667036,-0.10481661138907074,-0.04128676752967294
1746650746100972300,6.08197216796875,-0.08229249876141548,-0.07627150317253545,0.11244871370270848
1746650746110938000,6.091938232421875,-0.030071313136816023,-0.09979067298583685,0.11265124140433035
1746650746120904200,6.101904296875,-0.1056406411230564,-0.0706318715840578,-0.025360829324345104
1746650746130869200,6.111869140625,-0.0802040020495653,0.0199765470366925,-0.009733566963271004
1746650746140835000,6.1218349609375,-0.025583938589692115,0.0770519312268123,0.02395071364796022
1746650746150801200,6.13180126953125,-0.051774026378989216,0.0623910262549296,-0.021579449905396904
1746650746160766200,6.14176611328125,-0.04533785585165023,0.042098709533642975,-0.0314856711634784
1746650746170732300,6.151732177734375,0.000005845218896865844,0.0034496472635306414,-0.008979893343534785
1746650746180698000,6.161697998046875,-0.08050210821330547,-0.019163111761957407,-0.05137318135998212
1746650746190663200,6.1716630859375,-0.11776420963704586,-0.014394417789112776,-0.008083051818376407
1746650746200629200,6.181629150390625,-0.07168050385415553,-0.0458942293590866,-0.027366559106588827
1746650746210595000,6.191594970703125,-0.05133212783038616,-0.05998749051084742,0.017269724346965085
1746650746220560100,6.20156005859375,-0.060904258295893667,-0.07907607573186978,0.06285994980777614
1746650746230526200,6.211526123046875,-0.044138416934013366,-0.033729342454019935,0.08982269333684817
1746650746240491300,6.2214912109375,-0.06014730244874954,0.03619631708944216,0.06418870506035164
1746650746250457000,6.23145703125,-0.07391630008220672,0.08087717033708468,0.11840209654862992
1746650746260423200,6.241423095703125,-0.060891983336210244,0.04287771281581372,0.09406197487441822
1746650746270389000,6.251388916015625,-0.014497896429896354,-0.00036837665466591714,0.0117243537630653
1746650746280354300,6.261354248046875,-0.08646890766322612,-0.03206352813364938,-0.07039572474062443
1746650746290320100,6.271320068359375,-0.029299159720540046,-0.012631627633981407,-0.08200379061368293
1746650746300285200,6.28128515625,-0.041108839979767796,0.07797313772495836,-0.13290352750932796
1746650746310251300,6.291251220703125,-0.04827800095677375,0.10487320041451603,-0.13718860268369315
1746650746320217000,6.301217041015625,-0.08567804954648017,0.09859620250426232,0.06809401453635655
1746650746330182100,6.31118212890625,-0.05453530778586864,0.02115971067296341,0.2824926159522496
1746650746340148200,6.321148193359375,-0.030278233885765074,-0.032649858387932176,0.40530214454643426
1746650746350114000,6.331114013671875,-0.03191080352365971,-0.08596196278808638,0.44854606032613664
1746650746360079000,6.3410791015625,-0.12587737346589564,-0.17604677765984086,0.3502766420908272
1746650746370045200,6.351045166015625,-0.10163725070059298,-0.1979350948682986,0.2511763625219464
1746650746380011000,6.361010986328125,-0.07171089899241924,-0.13747017783774063,-0.001954150292056147
1746650746389976300,6.370976318359375,-0.13037351584136486,-0.008335483076330273,-0.20262434866307302
1746650746399942100,6.380942138671875,-0.08398468963205814,-0.00104220252931118,-0.4049285619936883
1746650746409908000,6.390907958984375,0.004454056799411773,-0.017424195672757922,-0.36857170231398195
1746650746419873300,6.400873291015625,-0.028467385071516034,-0.003579502454586327,-0.3813083977576345
1746650746429839000,6.410839111328125,-0.1239361762702465,-0.04579502503462136,-0.2910247906444594
1746650746439805200,6.42080517578125,-0.046128129446506495,0.016042897382192313,-0.023006169656710696
1746650746449770200,6.430770263671875,-0.05751169324815273,0.0771282113334164,0.004588335862191161
1746650746459736000,6.440736083984375,-0.11304945607483387,0.0922714747284539,-0.16862570601468904
1746650746469702000,6.450701904296875,-0.14944588057994843,0.05548550291648134,-0.23066790056563913
1746650746479666700,6.460666748046875,-0.147085581189394,0.03161960202474147,-0.04022077313282061
1746650746489632500,6.470632568359375,0.03366203110516071,0.03254539336645976,0.11412483022138475
1746650746499598800,6.480598876953125,0.06852408564984798,0.003231401402968913,0.1469750974190887
1746650746509563600,6.490563720703125,-0.03517594279944897,0.004042827383708208,0.06365619648569264
1746650746519529500,6.500529541015625,-0.05343114593625068,-0.030254231955669817,0.06028918600431643
1746650746529495800,6.510495849609375,-0.07587269484698772,-0.02581593898097053,0.03679002464929362
1746650746539460600,6.520460693359375,-0.05791267526447773,-0.05065075797010213,-0.019993247009743934
1746650746549426700,6.5304267578125,-0.04638590359985828,-0.047407264270540324,-0.1320264706801623
1746650746559392800,6.540392822265625,-0.036653614136576654,-0.0407719727082178,-0.10719604473835788
1746650746569357600,6.550357666015625,-0.033948446831107135,-0.015874463746417312,-0.05335068741145078
1746650746579323600,6.56032373046875,-0.019420155262947082,0.035589309373311694,-0.04781311882480513
1746650746589289700,6.570289794921875,-0.04214402824640274,0.024550704818125813,0.0773736191955395
1746650746599254500,6.580254638671875,-0.0434744000673294,-0.030808322174474594,0.16194460254926232
1746650746609220900,6.590220947265625,-0.061413961383700366,-0.045853568555135275,0.19698265298167242
1746650746619186700,6.600186767578125,-0.04944295308291912,-0.09182447987962514,0.06194928753653075
1746650746629151500,6.6101513671875,-0.18487199874818325,-0.01636213766550645,0.10092707487093285
1746650746639117800,6.620117919921875,-0.09389759635925292,0.06460820911405607,0.37349516672343014
1746650746649083600,6.630083740234375,-0.08433423372209072,0.039006954063382,0.3011051263604313
1746650746659048700,6.640048583984375,-0.10723755492568016,0.043664935937058176,0.3652268488654867
1746650746669014800,6.650014892578125,-0.03721183254122734,0.019386837515234946,0.3929243090104311
1746650746678980600,6.659980712890625,-0.060413844430446624,0.0025967202286235986,0.48794959422536194
1746650746688945700,6.669945556640625,-0.08047405116260051,-0.005352887068968266,0.2940282102441415
1746650746698911700,6.679911865234375,-0.014628244811296463,-0.026436372434254733,-0.1622523167915642
1746650746708877800,6.6898779296875,-0.0041547815918922424,-0.04134031064808368,-0.4778846022089943
1746650746718842600,6.699842529296875,-0.12086626730561256,-0.013056264520529657,-0.5898487837977707
1746650746728808700,6.70980859375,-0.009233107769489287,-0.042120446441415695,-0.526862312400341
1746650746738774800,6.71977490234375,-0.09452011217176913,-0.02900397616624832,-0.2840403020519763
1746650746748739800,6.72973974609375,-0.018504209461808203,-0.017017934693116694,-0.04264568045849446
1746650746758705700,6.73970556640625,-0.14226386012136935,0.03809519124701619,0.041617542987153866
1746650746768671700,6.749671630859375,-0.12416764693856239,0.02215343441804871,0.2137321277306415
1746650746778636800,6.75963671875,-0.031842414462566374,-0.031058625407423823,0.08214475172064267
1746650746788602600,6.7696025390625,0.00795943457186222,-0.00882651799628511,0.055245885474327946
1746650746798568700,6.779568603515625,-0.08408522739708423,-0.01741073340298608,-0.1826052411262877
1746650746808533800,6.78953369140625,-0.1732838522851467,0.00945299759786576,-0.11453363935113883
1746650746818499800,6.799499755859375,-0.018873627296090125,0.010728351295925677,0.03359475172234233
1746650746828465700,6.809465576171875,-0.08876490964591503,0.026610687821544705,0.22000680581964552
1746650746838430700,6.8194306640625,-0.011270751076936722,-0.0003353694342076778,-0.023450917749525978
1746650746848396800,6.829396728515625,-0.11108546252548694,-0.005034413970634341,-0.19685913619985804
1746650746858362600,6.839362548828125,-0.025348960790038108,-0.04150534675037488,-0.31620727229379114
1746650746868327700,6.84932763671875,-0.04629939436018467,-0.07171104512289166,-0.28624815082717686
1746650746878293800,6.859293701171875,-0.03522913429141045,-0.08326654969165101,-0.22354212207263335
1746650746888259600,6.869259521484375,-0.05797580362856388,-0.04310637047253549,0.08685770605141296
1746650746898224600,6.879224609375,-0.06635667848289012,0.05419065906666219,0.22735402677729724
1746650746908190700,6.889190673828125,-0.07473463072776794,0.050637313966639334,0.02632589779710397
1746650746918156500,6.899156494140625,-0.06321370428204535,0.036748635476268825,0.06819701825310476
1746650746928121900,6.909121826171875,-0.05977203939557075,-0.018011384443566203,-0.09328173861638642
1746650746938087700,6.919087646484375,-0.06800269212424755,-0.03081968381870538,-0.2893436691571027
1746650746948053500,6.929053466796875,-0.06605915684103965,-0.027029187228251247,-0.06769569940115325
1746650746958018800,6.939018798828125,-0.06531506047546863,-0.059603276966232806,-0.10578448830684646
1746650746967984600,6.948984619140625,-0.042572482791543007,-0.026306626841053365,0.1917434919528663
1746650746977950700,6.95895068359375,-0.054691959652304646,-0.009341299118008463,0.17287863248512148
1746650746987915800,6.968915771484375,-0.05978080722391605,0.04218333734348416,0.2452677960652858
1746650746997881600,6.978881591796875,-0.08686404446065425,0.057346529281698165,0.3538837266720831
1746650747007846700,6.9888466796875,-0.074893036159873,0.06725207468634471,0.4447773919750005
1746650747017812700,6.998812744140625,-0.06367138492166996,0.013012498444039374,0.2151948024280369
1746650747027778600,7.008778564453125,-0.055745268097519875,-0.057104135360568756,-0.3259563302287832
1746650747037743900,7.018743896484375,-0.05604688139259815,-0.017616759102791545,-0.30235466976379977
1746650747047709700,7.028709716796875,-0.03240063286721706,0.000041446255240589375,-0.09800876713828183
1746650747057675500,7.038675537109375,-0.04825462008118629,-0.0042972770688124,-0.027082803411898202
1746650747067640800,7.048640869140625,-0.04031856638491153,-0.010380122380144893,0.025330114525672978
1746650747077606700,7.058606689453125,-0.09523439792096615,-0.004016469099745154,0.006313530528359115
1746650747087572700,7.06857275390625,-0.0712941348850727,-0.017890972934290764,-0.006394728838675655
1746650747097537800,7.078537841796875,-0.06485737983584404,0.06768683110810816,0.2865634638540447
1746650747107503600,7.088503662109375,-0.08595686648786068,0.043924500188697126,0.23775858947895465
1746650747117469700,7.0984697265625,-0.03972469214498996,0.07692474291687831,0.3175067740524187
1746650747127434800,7.108434814453125,-0.08731237275004386,0.04936700176987797,0.3447507548088208
1746650747137400600,7.118400634765625,-0.021024667850136756,0.03387523546442389,0.4499232304308563
1746650747147366700,7.12836669921875,-0.07474807473123073,-0.027778124165721237,-0.055039266119478264
1746650747157331700,7.138331787109375,-0.06023965690732002,-0.029949385523889212,-0.5981739464094862
1746650747167297500,7.148297607421875,-0.08328326336443424,-0.014116057505458593,-0.5122238749885931
1746650747177263600,7.158263671875,-0.010553542718291281,-0.06060050784265622,-0.45005982588995247
1746650747187228700,7.168228759765625,-0.04511515301167965,-0.026246676814742385,-0.16921554340030998
1746650747197194500,7.178194580078125,-0.07907762836813927,-0.017513207396771757,0.07778093962110579
1746650747207160800,7.188160888671875,-0.07907704384624957,-0.030566658905707297,0.07258559490113985
1746650747217125600,7.198125732421875,-0.08641396260559558,0.017739399101771414,0.19003473353991285
1746650747227091700,7.208091796875,-0.0873106191843748,-0.03783338023936376,0.07986549081020057
1746650747237057800,7.218057861328125,-0.030451252365112303,-0.05312186079137027,-0.1754127358063124
1746650747247022600,7.228022705078125,-0.07818973961770534,-0.017767711880803106,-0.17093518853345885
1746650747256988700,7.23798876953125,-0.050959787386655804,-0.01144269184404984,-0.15228796300492248
1746650747266954800,7.247954833984375,-0.05036240601539611,0.028989673646260053,-0.1369694800402969
1746650747276919600,7.25791943359375,-0.05575052879452705,0.04846713032070547,0.20434417645931244
1746650747286885600,7.2678857421875,-0.06952186451554299,0.08873604887761175,0.3862851267242804
1746650747296851700,7.277851806640625,-0.06369476579725741,0.035201789626758545,0.2652457313414663
1746650747306816500,7.28781640625,-0.056366030344367025,-0.05202416521515697,-0.2255117051125504
1746650747316782600,7.297782470703125,-0.04843757543265819,-0.055656713031232354,-0.3888938479179516
1746650747326748700,7.307748779296875,-0.03990764749646187,-0.05508510542204603,-0.2257875446455553
1746650747336713700,7.317713623046875,-0.05562134945690632,-0.06999101639725268,-0.11561972668794915
1746650747346679800,7.3276796875,-0.06684767687022686,-0.047709589951671655,-0.24262239612303674
1746650747356645600,7.337645751953125,-0.07597673974335194,-0.012069408907648176,-0.08149219696288929
1746650747366610700,7.347610595703125,-0.06161211430430412,-0.043245230953954154,0.024331212281971236
1746650747376576800,7.35757666015625,-0.07089023025929928,-0.006299191475752741,0.0301833860760089
1746650747386542800,7.36754296875,-0.0391740725249052,0.040521998268831516,0.21026571199540048
1746650747396507600,7.377507568359375,-0.08152268343269825,0.043920463334396476,0.19694151725368572
1746650747406473700,7.3874736328125,-0.04082417781949043,-0.0600811966762878,-0.08946595232104881
1746650747416439800,7.397439697265625,-0.06387304497361183,0.002385872223228216,0.08834161533308214
1746650747426404600,7.407404541015625,-0.05789104795455932,-0.04323931266982108,0.19053512081010265
1746650747436370700,7.41737060546875,-0.04727262330651283,-0.004394855691771954,0.18227778100389985
1746650747446336800,7.427336669921875,-0.06882569894492625,-0.007360792825277894,0.07433105489555746
1746650747456301600,7.437301513671875,-0.06643792702555656,-0.009242734114360064,0.15306766953999176
1746650747466267600,7.447267578125,-0.0721311702311039,-0.030897023371234535,0.06578422149033285
1746650747476233500,7.4572333984375,-0.057767129313945766,-0.06973565339669585,-0.19230952833779155
1746650747486198500,7.467198486328125,0.01690437304973602,-0.08321966007631272,-0.24727661513704804
1746650747496164400,7.477164306640625,-0.06464402934610844,-0.03324769641691819,-0.21798291704291475
1746650747506130400,7.48713037109375,-0.06464052221477032,0.021860004429426042,-0.11741015376867726
1746650747516095500,7.497095458984375,-0.033058804515004155,0.0031910693925805388,-0.012649969291558955
1746650747526061300,7.507061279296875,-0.05460369684696197,-0.03728922689268365,0.08499417720185592
1746650747536027400,7.51702734375,-0.08407236791551112,-0.06306729981498792,0.04796203034278005
1746650747545992400,7.526992431640625,-0.027507015606760978,-0.030830826267227527,0.18285905149057508
1746650747555958500,7.53695849609375,-0.10681611464321612,-0.019080803773365913,0.12913511488651855
1746650747565924400,7.54692431640625,-0.04142389727830886,-0.06892579831853508,0.027851239634281953
1746650747575889400,7.556889404296875,-0.09035773179531097,-0.03548997718468308,-0.09166903358958661
1746650747585855500,7.56685546875,-0.039923429587483406,-0.029145174735225734,-0.11971723426780663
1746650747595821300,7.5768212890625,-0.012232289585471153,-0.04251887117447331,-0.15303321928111835
1746650747605786400,7.586786376953125,-0.05697042597830295,-0.037271161513030525,-0.2121884236862883
1746650747615752400,7.59675244140625,-0.09033084378838539,-0.046319450767524535,-0.1721658811058849
1746650747625718300,7.60671826171875,-0.03750233992040157,0.03898351838886738,-0.07940279606874101
1746650747635683300,7.616683349609375,-0.10558160441219806,0.026869978078547862,-0.11814895290462299
1746650747645649400,7.6266494140625,-0.04976677820980548,0.033787812909297645,0.01329731015972211
1746650747655615200,7.636615234375,-0.02551788761615753,-0.07792537132678554,-0.2306214493417181
1746650747665580500,7.64658056640625,-0.04990589441955089,-0.06759171843687072,-0.24832407836336642
1746650747675546400,7.65654638671875,-0.09674187987446785,-0.05894771740064025,-0.11479033579225652
1746650747685512200,7.66651220703125,-0.0744487995237112,-0.012499891013093291,0.00023587399044190533
1746650747695477500,7.6764775390625,-0.06368015275001525,0.012249441649671643,0.08743279339247383
1746650747705443300,7.686443359375,-0.06831716490089892,-0.036822961087804286,0.1369846958757378
1746650747715409400,7.696409423828125,-0.05798924763202667,-0.07859371730871498,0.12783578665782697
1746650747725374500,7.70637451171875,-0.02506955932676792,-0.005455397595372051,0.15194422760116866
1746650747735340300,7.71634033203125,-0.06442249554991722,-0.02689365121508017,-0.02841538088964298
1746650747745306400,7.726306396484375,-0.04376958362162113,-0.11669270794801413,-0.0854633930156473
1746650747755271400,7.736271484375,-0.036577626290917396,-0.010200528029538691,0.16222457026811316
1746650747765237200,7.7462373046875,-0.056470075240731235,0.02668895895583555,0.09325630278103053
1746650747775203600,7.75620361328125,-0.04478957431912422,-0.0007419044084846973,0.03050216970159672
1746650747785168400,7.76616845703125,-0.05720657282173633,-0.08165268475422635,-0.014770853311003883
1746650747795134200,7.77613427734375,-0.08728197761178016,-0.07349789200704544,-0.003034507716045482
1746650747805100500,7.7861005859375,-0.05540566087961197,-0.012664379126112908,0.016027577657118673
1746650747815065300,7.7960654296875,-0.04957330146431923,0.03981492771171033,0.026999897201685233
1746650747825031400,7.806031494140625,-0.10105506689846515,0.010441698107961564,0.10931808752678335
1746650747834997500,7.81599755859375,-0.05332710103988647,0.10159890971789136,0.2708374138686806
1746650747844962300,7.82596240234375,-0.09911796135604381,0.1134564842394553,0.3993934319593012
1746650747854928400,7.835928466796875,-0.006793313401937485,0.04739109858702868,0.3989482454750687
1746650747864894500,7.84589453125,-0.013082184413075446,0.05568120815167203,0.009614857645670417
1746650747874860300,7.8558603515625,-0.08461012805402278,0.06585888502858579,-0.3752123093722388
1746650747884825300,7.865825439453125,-0.07009118883609772,-0.03349277548547834,-0.49307508401293304
1746650747894791400,7.87579150390625,-0.015019289955496787,-0.1275213230143301,-0.4021205919008702
1746650747904757500,7.885757568359375,-0.06993395244777202,-0.10598337187981233,-0.16160510492920874
1746650747914722600,7.89572265625,-0.059306175449490545,-0.06294875146923587,0.0525077474810183
1746650747924688400,7.9056884765625,-0.0522714545071125,0.008609221983794123,0.21169271259121594
1746650747934654500,7.915654541015625,-0.06379238095283508,0.10460028349095955,0.12987838013502767
1746650747944619500,7.92561962890625,-0.06528291177153588,0.06530221926020457,-0.1521191549098119
1746650747954585300,7.93558544921875,-0.04402852681875229,0.014027009248826652,-0.008092212372366339
1746650747964551400,7.945551513671875,-0.08771686189770699,-0.0283706101661548,-0.10690532729662955
1746650747974516500,7.9555166015625,-0.042972295764088626,-0.055544064703304315,-0.11969673946904949
1746650747984482300,7.965482421875,-0.057634442844986915,-0.05562511231657117,-0.05458131605179514
1746650747994448400,7.975448486328125,-0.07753858223259448,-0.020267364943120626,0.2643857169786468
1746650748004413400,7.985413330078125,-0.10134791236519813,0.08682597747258841,0.3870730256989598
1746650748014379500,7.995379638671875,-0.1261935998082161,0.13234116265252233,0.46119544281251723
1746650748024345300,8.005345458984374,0.037648470392823215,0.06016940468270331,0.2692485920409672
1746650748034310400,8.015310302734376,-0.10750058977603912,0.07532927215266973,0.13038125162324868
1746650748044276500,8.0252763671875,0.011906710892915725,-0.01608151235952973,-0.18985566891226915
1746650748054242300,8.0352421875,-0.09523322887718677,-0.0076813848154619335,-0.13347963776369579
1746650748064207400,8.045207275390625,-0.04496142375469207,-0.02393885653009638,-0.09731043701004237
1746650748074173400,8.05517333984375,-0.07714227639138699,-0.06816964618898928,-0.4094237545210868
1746650748084139300,8.06513916015625,-0.06652209817767143,-0.029502171479351816,-0.3718620125636458
1746650748094104300,8.075104248046875,-0.0508159950017929,-0.08939940815716982,-0.22157588176727294
1746650748104070400,8.0850703125,-0.027774142110347746,-0.07649276297409087,-0.09784679064275696
1746650748114036200,8.0950361328125,-0.03854629601538181,-0.09124993139468134,0.08190528954211622
1746650748124001500,8.10500146484375,-0.054116790112853044,-0.08052937981272115,0.2211396092418581
1746650748133967400,8.11496728515625,-0.09362696272432804,0.062375883484724906,0.29614332096828144
1746650748143933200,8.12493310546875,-0.03169160781502724,0.09590093553829937,0.275468105876632
1746650748153898500,8.1348984375,-0.0852712223112583,0.09720283018341287,0.010153830210445448
1746650748163864300,8.1448642578125,-0.029613047975301742,0.13506543651726097,-0.2536059825553559
1746650748173830400,8.154830322265624,-0.03380465444624424,-0.13128297710279002,-0.35883904752451923
1746650748183796500,8.16479638671875,-0.07226619478762149,-0.10088615833865477,0.03873327908799983
1746650748193761300,8.17476123046875,-0.07795768442749977,0.042338692301977426,-0.020963795375218613
1746650748203727400,8.184727294921874,-0.040702012744545935,-0.056281566931307314,-0.27945514795249327
1746650748213693400,8.194693359375,-0.03231938432455063,-0.13875433589676395,-0.32522498374693093
1746650748223658200,8.204658203125,-0.07451192788779736,-0.08365255333455279,-0.24135590158486736
1746650748233624600,8.21462451171875,-0.04981996970176696,-0.1293682295226492,-0.40423082552049305
1746650748243590400,8.22459033203125,-0.0848228940218687,-0.07654785416219383,-0.24513843406457453
1746650748253555200,8.23455517578125,-0.050849897271394724,-0.05189471188290044,0.01255305282230256
1746650748263521500,8.244521484375,-0.020310382100939748,0.060486306878458705,-0.12796555051733738
1746650748273487400,8.2544873046875,-0.04991992294490337,-0.01644070106074214,0.12706250986354425
1746650748283452400,8.264452392578125,-0.030452421408891674,-0.024831622385047374,0.1402837830869015
1746650748293418500,8.27441845703125,-0.09434534012675284,0.06955160206668079,0.3323461773963645
1746650748303384300,8.28438427734375,-0.07923369571268558,0.05433702700110152,0.396464831161499
1746650748313349400,8.294349365234375,-0.0671200640708208,0.09947987173730508,0.44499797592312096
1746650748323315500,8.3043154296875,-0.07101005724668502,0.07072961460379883,0.5187034462662413
1746650748333281500,8.314281494140625,-0.022830255967378615,0.036591289490088816,0.30038784493654963
1746650748343246300,8.324246337890624,-0.08133505190610885,0.06984472152804956,0.14408228032072073
1746650748353212400,8.33421240234375,-0.04780804535746574,0.08812997274324297,0.022878579487977547
1746650748363178500,8.344178466796874,-0.03747954356670379,0.004755158637836575,-0.12872151085063815
1746650748373143600,8.3541435546875,-0.0531821396112442,0.0183141485161148,-0.39377643232773984
1746650748383109400,8.364109375,-0.02279518465399742,-0.07771273322310299,-0.28734838542034846
1746650748393075500,8.374075439453126,-0.07576338925361632,-0.09361211221506818,-0.11323683187309652
1746650748403041300,8.384041259765626,-0.11975626023709773,-0.04870234558237716,-0.3250797665899619
1746650748413006300,8.39400634765625,-0.05257131423652172,0.03685801413487643,0.014863377874577416
1746650748422972400,8.403972412109376,-0.07846388038396834,0.02491307185711339,0.23159027610756455
1746650748432938200,8.413938232421875,-0.05692191066145896,0.0992575890224427,0.16256414095340296
1746650748442903600,8.423903564453125,-0.07099310611188411,0.06528084767861292,0.0058698099154280495
1746650748452869400,8.433869384765625,-0.07145020222961902,0.0325456856274046,-0.08209418144403025
1746650748462835200,8.443835205078125,-0.03569616728127002,0.022965554518532008,-0.059166556916246185
1746650748472800800,8.45380078125,-0.054702481046319,-0.006369863825477659,-0.18247359583694486
1746650748482766600,8.4637666015625,-0.03615150983333587,-0.11500285516493022,-0.41804048395790155
1746650748492732700,8.473732666015625,-0.10557926632463932,-0.07046522804656997,-0.3018203071587719
1746650748502697700,8.48369775390625,-0.004571545699238777,-0.037670134235359726,0.03546218271217076
1746650748512663600,8.49366357421875,-0.06472469336688517,-0.06488687992496416,0.07967711036494002
1746650748522629600,8.503629638671875,-0.06786883661150932,0.032564499925728886,0.015056576058850623
1746650748532594700,8.5135947265625,-0.0597960047930479,0.06259264977425337,0.09553592901765369
1746650748542560500,8.523560546875,-0.09197101221084594,-0.03940324163828045,-0.06956800521221011
1746650748552526600,8.533526611328124,-0.022092589342594147,-0.022967563812527805,0.11178632253753021
1746650748562492700,8.54349267578125,-0.01671264986991882,-0.003598609013855457,0.23466124451812356
1746650748572457500,8.55345751953125,-0.08570201494395732,-0.0809812152334489,0.0450557692409493
1746650748582423800,8.563423828125,-0.052339843568205834,-0.05979428775999695,0.05098267963847611
1746650748592389600,8.5733896484375,-0.058929158830642696,-0.00008482873924076556,0.2912044215276837
1746650748602354700,8.583354736328126,-0.06102525432705879,-0.02225097650839016,0.08311757880817167
1746650748612320800,8.59332080078125,-0.034684944412112236,-0.058664863604959094,-0.029064695660828144
1746650748622286600,8.60328662109375,-0.027951252242922782,-0.05177554248264059,0.1278607841017656
1746650748632251600,8.613251708984375,-0.08944996930062771,-0.0749007262759842,0.16970259626489131
1746650748642217700,8.6232177734375,-0.042154549640417094,-0.034518410472478715,0.06534255583717022
1746650748652183800,8.633183837890625,-0.020000585499405858,-0.08077909852378069,0.2450282151557505
1746650748662148600,8.643148681640625,-0.06338847632706165,-0.03324897505855188,0.09706151288342661
1746650748672114700,8.65311474609375,-0.06907002909481524,-0.06786114649539814,-0.14785959776919333
1746650748682080800,8.663080810546875,-0.037650808480381964,-0.10656590274181216,-0.3196260677613318
1746650748692045600,8.673045654296875,-0.08314239358901977,-0.00836273640943691,-0.05730895548397675
1746650748702011600,8.68301171875,-0.06742869162857532,0.03564650118695572,0.21430115979025138
1746650748711977700,8.692977783203125,-0.05575812757909298,0.1291337083807215,0.5184653266614303
1746650748721943600,8.702943603515624,-0.05875146417617798,0.015575973990187049,0.19644286528285593
1746650748731908600,8.71290869140625,-0.05680617532730102,0.112694614755176,0.21957018623435867
1746650748741874700,8.722874755859374,-0.03630816169977188,0.12164035695064812,0.32936990153193474
1746650748751840500,8.732840576171874,-0.07148527354300022,0.10598691554376855,0.34891949186082927
1746650748761805600,8.7428056640625,-0.11668927388191222,0.11181006873929872,0.06502697338224388
1746650748771771600,8.752771728515626,-0.045614919227361675,0.03804287653788924,-0.05068416248278226
1746650748781737500,8.762737548828126,-0.040377018573880194,-0.10623847915204242,-0.17492813062714413
1746650748791702800,8.772702880859375,-0.0358843833297491,-0.11038719632932915,-0.278172396399267
1746650748801668600,8.782668701171875,-0.0771849464893341,-0.14179467170704155,-0.6375567297816276
1746650748811634400,8.792634521484375,-0.043510055902600285,-0.08927938024038448,-0.39285880602616813
1746650748821599700,8.802599853515625,-0.06355915671885014,0.007911741238925605,0.21326770682297647
1746650748831565600,8.812565673828125,-0.08944646216928959,-0.020157730556186287,0.1968435002393089
1746650748841531600,8.82253173828125,-0.057125908800959586,-0.12019766559535637,-0.10460253024697304
1746650748851496700,8.83249658203125,-0.10336334384083748,-0.11350342865372076,-0.38232316429074853
1746650748861462500,8.842462646484375,-0.016571195572614668,-0.059170621170010415,-0.24981709340009836
1746650748871428600,8.8524287109375,-0.06849427503347397,-0.011967903028242289,-0.27871205623392015
1746650748881393700,8.8623935546875,-0.049935705035924906,0.08721850218782201,-0.18884318566778674
1746650748891359500,8.872359375,-0.06205050572156906,0.10054220373919233,-0.223536459516827
1746650748901325800,8.882325927734374,-0.04948211604952812,0.07639545834576711,-0.12581153255491517
1746650748911291600,8.892291748046874,-0.0660924745887518,-0.007289791681990027,-0.263362018220406
1746650748921256400,8.90225634765625,-0.05232523052096367,0.010504972602520138,-0.09130352474544197
1746650748931222800,8.912222900390624,-0.0704272889226675,-0.06564531534314155,-0.1641247961325571
1746650748941188600,8.922188720703126,-0.06204699859023094,-0.06505482037039473,-0.3578226735562086
1746650748951153700,8.932153564453126,-0.06099719727635383,-0.0468923187520355,-0.21027561233490705
1746650748961119700,8.94211962890625,-0.04333119220435619,0.004641761391237378,0.07527141361874527
1746650748971085600,8.95208544921875,-0.044671500897407526,0.037867848764546214,0.09402774381125345
1746650748981050600,8.962050537109375,-0.06202361771464347,-0.04285694402242079,-0.03203743699445622
1746650748991016700,8.9720166015625,-0.04406126004457474,-0.0026450894149951634,-0.019864001456752885
1746650749000982800,8.981982666015625,-0.04959726686179638,-0.00012797376122325658,0.092801069826819
1746650749010947600,8.991947509765625,-0.10242226359844207,0.048085948983393606,0.2244789645313285
1746650749020913700,9.00191357421875,-0.09060264646708965,0.11803033149363472,0.13833879563212395
1746650749030879700,9.011879638671875,-0.024312603479623794,0.03132964263483882,0.10220169791663065
1746650749040845600,9.021845458984375,-0.05019873988628387,-0.03834587807245552,0.005896551791881211
1746650749050810600,9.031810546875,-0.05064882174134254,-0.0215377136725001,-0.04782452156823128
1746650749060776700,9.041776611328125,-0.04211889380514622,-0.0778100195851177,0.12265311418976634
1746650749070742500,9.051742431640625,-0.0739957950592041,-0.07331458959570154,0.1683320020314306
1746650749080707600,9.06170751953125,-0.054395022532343865,-0.06910146541269496,0.23469317402634768
1746650749090673700,9.071673583984374,-0.05618892021179199,-0.13286038248734547,0.028233756695443295
1746650749100639500,9.081639404296874,-0.06965338194072246,0.05881603557867929,0.17004158242829143
1746650749110604800,9.091604736328126,-0.042722704917192454,0.048162868410814554,0.24434896418731658
1746650749120570600,9.101570556640626,-0.07430559166073798,0.11643029415216297,0.6415938032779842
1746650749130536400,9.111536376953126,-0.07356734051406383,0.18488146069627254,0.9676914782062173
1746650749140501800,9.121501708984376,-0.08061141380667686,0.18591818333286791,0.7815794162690639
1746650749150467600,9.131467529296875,-0.0668546911329031,-0.01555032809227705,0.13447068549450486
1746650749160433700,9.14143359375,-0.05713876828253269,-0.03437330291336402,-0.281423233155068
1746650749170399700,9.151399658203125,-0.054307344248890874,-0.00010985358264297246,-0.12461276949071325
1746650749180364500,9.161364501953125,-0.05894552544355392,-0.018502401097211987,-0.18750432001315057
1746650749190330600,9.17133056640625,-0.023785364735126494,-0.12023215238684788,-0.6925411695744842
1746650749200296700,9.181296630859375,-0.06104980424642562,-0.1303072639384307,-0.8314855298843234
1746650749210261500,9.191261474609375,-0.09651216277182102,-0.09500745729729533,-0.484440928517282
1746650749220227800,9.201227783203125,-0.040247254714369775,-0.04596499304035678,-0.18874553397959098
1746650749230193700,9.211193603515625,-0.051019993141293525,-0.10170299114687367,-0.27375001337975263
1746650749240158500,9.221158447265625,-0.06044833122193813,-0.10588318117465824,-0.240495576694794
1746650749250124800,9.231124755859375,-0.06329612186849116,0.007580426925327628,-0.3276847979892045
1746650749260090600,9.241090576171874,-0.05506254653036594,-0.007231997080147266,0.04664005645744037
1746650749270055700,9.2510556640625,-0.05162263520956039,-0.0760649294834584,0.23498075879607347
1746650749280021800,9.261021728515624,-0.10295008686482905,-0.060571848003752524,-0.3716722256125882
1746650749289987600,9.270987548828124,-0.03561141160726547,0.05339165417607873,0.09761762152938172
1746650749299952600,9.28095263671875,-0.04459259044229984,0.020793982633110136,0.02262696564735379
1746650749309918700,9.290918701171876,-0.04608838195800781,-0.029277842937875536,-0.24315979093536733
1746650749319884500,9.300884521484376,-0.050720717933773994,-0.06168165414286777,-0.021194599323254078
1746650749329850600,9.3108505859375,-0.06014847149252891,0.002945588465221226,0.014433941515325567
1746650749339815700,9.320815673828125,-0.09367255543172359,0.009391750663612038,0.006294022110290825
1746650749349781800,9.33078173828125,-0.046996728974580765,0.03791861083740368,0.033592724162037485
1746650749359747600,9.34074755859375,-0.04729892679154873,-0.0032999365945346653,-0.13731149841099977
1746650749369712600,9.350712646484375,-0.020362989071011542,0.00837205222705379,0.07839044982157647
1746650749379678700,9.3606787109375,-0.05388181231319904,-0.1278604735745117,-0.2067379031954333
1746650749389644500,9.37064453125,-0.06989771209061145,-0.06542038401346653,-0.20833984023304655
1746650749399609600,9.380609619140625,-0.057179100292921066,0.09317406785767525,-0.06492575976378284
1746650749409575700,9.39057568359375,-0.029646365723013875,0.021254677213728427,-0.41966856008376924
1746650749419541500,9.40054150390625,-0.07019932538568974,0.11229503924464806,-0.0008087819325039163
1746650749429507800,9.4105078125,-0.08067746478021144,0.0804459393129684,0.32955278381817044
1746650749439472600,9.42047265625,-0.08367430850863457,0.07084628151971846,-0.08401459157997741
1746650749449438500,9.4304384765625,-0.03714344348013401,-0.023980211453791707,-0.003703270398150198
1746650749459404800,9.44040478515625,-0.03086217125356197,-0.06723154335496946,-0.14927535545178688
1746650749469369600,9.45036962890625,-0.0561579405516386,-0.059597778807207936,-0.07540591301887761
1746650749479336200,9.460336181640624,-0.07397066061794758,-0.01987083990620449,0.19056060231123118
1746650749489302300,9.47030224609375,-0.07621873180568217,0.09767258485332131,0.00595362487451639
1746650749499267000,9.48026708984375,-0.05197685547471046,0.0906033588531427,-0.0754700779960025
1746650749509233200,9.490233154296876,-0.0618570289760828,-0.0460593019939959,-0.18396662913998588
1746650749519199200,9.50019921875,-0.03402268111109733,-0.021941746162436902,0.037376434818678535
1746650749529164000,9.5101640625,-0.06604746640324592,-0.06421862527457997,-0.05011843205853365
1746650749539130000,9.520130126953125,-0.044050738650560375,-0.023939167057350278,-0.48437524286992845
1746650749549096200,9.53009619140625,-0.03103402068912983,-0.14591887549757956,0.010747412189422175
1746650749559062300,9.540062255859375,-0.06095978787541389,-0.07417568167075514,-0.07015020728064701
1746650749569027000,9.550027099609375,-0.055112815412878984,-0.07401532174358144,-0.0893482807581313
1746650749578993200,9.5599931640625,-0.05675181479156017,-0.17729255820354445,0.1366653642608784
1746650749588959200,9.569959228515625,-0.06153788002431392,-0.031643001166637985,0.1936245016601868
1746650749598924300,9.57992431640625,-0.07290449269115924,0.12403032082710415,0.10272550259502604
1746650749608890400,9.589890380859375,-0.0494090508133173,-0.031118392770644276,0.15722583039905874
1746650749618856200,9.599856201171875,-0.047460254833102226,-0.15372434335043653,-0.12718030929062515
1746650749628821200,9.6098212890625,-0.05255377857983112,-0.07734201848087832,0.18639551852103323
1746650749638787300,9.619787353515624,-0.05823942300081253,-0.08861545470524579,0.045804646812914865
1746650749648753200,9.629753173828124,-0.05928454813957214,-0.06681806718325242,0.03131987929265015
1746650749658718200,9.63971826171875,-0.07110650335848331,0.06711403618883341,0.10530901628220453
1746650749668684300,9.649684326171876,-0.07679331682324408,0.10406323573850094,0.17944100494170562
1746650749678650000,9.659650146484376,-0.061223407247662544,0.03514795881398022,-0.24468827914427965
1746650749688616200,9.6696162109375,-0.05134966348707676,0.02999015592569485,-0.06697383770027664
1746650749698581200,9.679581298828126,-0.08248013028800487,0.14639248435869812,0.2852345533378422
1746650749708547000,9.689547119140625,-0.08248071480989455,0.05715429464522749,0.21117431474030016
1746650749718513200,9.69951318359375,-0.06318330914378166,-0.02768701181616634,0.00446132679041475
1746650749728478200,9.709478271484375,-0.060948681959509844,-0.011558189716190099,-0.19997533199163153
1746650749738444000,9.719444091796875,-0.028328853383660316,0.0735759256793186,-0.1447544439612422
1746650749748410000,9.72941015625,-0.08100012086331844,0.009882201061677188,-0.3598994067650288
1746650749758375200,9.739375244140625,-0.05122340675890445,0.019298264182638376,-0.2831996134441346
1746650749768341200,9.74934130859375,-0.05750467898547649,-0.029748017732892183,-0.07083034873164724
1746650749778307000,9.75930712890625,-0.050772740381956095,-0.0732130654499866,0.2147390580171719
1746650749788273200,9.769273193359375,-0.09865911167263984,0.053168549477308986,0.2939680044895038
1746650749798238200,9.77923828125,-0.05332184034287929,-0.03799761262405663,-0.08731542322365567
1746650749808204300,9.789204345703125,-0.026088380980491637,-0.07419440463753417,-0.18630930154230443
1746650749818170400,9.79917041015625,-0.07337386376857757,-0.052821836665179575,-0.23741114601446314
1746650749828135200,9.80913525390625,-0.04643558796048164,-0.11278218344077467,-0.22508831033501772
1746650749838101200,9.819101318359374,-0.05555705204904079,-0.01872609031787142,-0.1310755814298056
1746650749848067300,9.8290673828125,-0.045077743610739705,0.0572684225441888,-0.05119303445352707
1746650749858032000,9.8390322265625,-0.056447863408923146,0.06523077972549944,0.12098236796595155
1746650749867998200,9.848998291015626,-0.06183247905671596,0.003304685834888369,0.08646393922716379
1746650749877964300,9.85896435546875,-0.05793780970573425,-0.04031657535722479,-0.12448844899130053
1746650749887929000,9.86892919921875,-0.06317161870598792,-0.08895526285255327,-0.1769265561690554
1746650749897895200,9.878895263671875,-0.04925415251255035,-0.06066946315933019,0.20782566189952192
1746650749907861200,9.888861328125,-0.0788847361445427,-0.07477742868987843,0.21268015272598711
1746650749917827000,9.8988271484375,-0.0497094950646162,0.09368574370685964,0.2292766836692579
1746650749927792400,9.90879248046875,-0.06512567538321018,0.19182137949466704,0.09966435232558288
1746650749937758200,9.91875830078125,-0.06722410896718502,0.10357234694901853,-0.02382995736210141
1746650749947724000,9.92872412109375,-0.062139353048801416,-0.0064762650757096705,-0.22023257739953694
1746650749957689300,9.938689453125,-0.05839782843291759,-0.20371048166565595,0.01150218064605724
1746650749967655200,9.9486552734375,-0.08638006033599376,-0.2081819279912859,-0.10148733910219743
1746650749977621000,9.95862109375,-0.061547816896438595,0.01056190868783742,0.05817692025781143
1746650749987586300,9.96858642578125,-0.058117842447757716,0.17653481690511105,0.08982560681314207
1746650749997552000,9.97855224609375,-0.05767068320214748,0.11527909655673428,-0.10813479602634907
1746650750007518200,9.988518310546874,-0.0367167425006628,0.05575496750762686,0.16897921389378606
1746650750017484300,9.998484375,-0.06918868703842163,0.08167098759589717,0.18377013845350593
1746650750027449000,10.008448974609376,-0.0738256991893053,0.030481519639212636,0.016068981671519576
1746650750037415200,10.018415283203124,-0.04974047472476959,0.029172318470478055,-0.01241020800222177
1746650750047381200,10.02838134765625,-0.057525137251615524,-0.11478850002819671,-0.42800267318692053
1746650750057346000,10.038345947265626,-0.02654255448877811,-0.20344646043460815,-0.45586153443865474
1746650750067312000,10.04831201171875,-0.029971944415569305,-0.20086033466523512,-0.11634340131999923
1746650750077278200,10.0582783203125,-0.06856383313834667,-0.30420820694230494,-0.08941663328660651
1746650750087243000,10.068242919921875,-0.05955868890583515,-0.3053663274688646,-0.2348957839263603
1746650750097209000,10.078208984375,0.00033668460845947266,-0.17529634288502857,0.033008398635173214
1746650750107175200,10.088175048828125,-0.002326397120952606,-0.1129227974878624,0.316022490311414
1746650750117141200,10.098141357421875,-0.12501987985372542,0.07767154269618913,0.3399850747769698
1746650750127106300,10.108106201171875,-0.13519699047505854,0.2683864953189157,0.3508042096288875
1746650750137072000,10.118072021484375,-0.08013561298847198,0.236342274673935,0.47487153799813236
1746650750147038200,10.1280380859375,-0.0874807150542736,0.18851506795827297,0.3868515649680048
1746650750157003300,10.138003173828125,-0.09108195441663265,0.3036009982967749,0.4721475198617205
1746650750166969300,10.14796923828125,-0.03887187470793724,0.17760398050658405,0.12298242834252304
1746650750176935200,10.15793505859375,-0.07868073800504208,0.1121036083257757,0.02057567284046672
1746650750186900200,10.167900146484374,-0.01927870096564293,0.22286551971901206,0.21824518470829352
1746650750196866300,10.1778662109375,-0.048314241313934324,0.20553937759324908,0.31436869522240013
1746650750206832000,10.18783203125,-0.08887246167361736,0.07944094525519758,0.22336079242266713
1746650750216798200,10.197798095703124,-0.06358429116010665,0.002504932025633752,0.1409246565400157
1746650750226763300,10.20776318359375,-0.044592005920410155,-0.07486985621368512,-0.15672831093939021
1746650750236729000,10.21772900390625,-0.0647983431249857,-0.07569688162235542,-0.3042066543060355
1746650750246695200,10.227695068359376,-0.041155017209053034,-0.14618128929343074,-0.17583214852847157
1746650750256660200,10.23766015625,-0.03936638022661209,-0.2303134245721623,-0.3182551812669262
1746650750266626000,10.2476259765625,-0.07423194190263747,-0.1553378977606073,-0.37285851278770715
1746650750276592000,10.257592041015625,-0.013926234021782875,0.0003006999796256423,-0.2242306705923751
1746650750286557200,10.26755712890625,-0.05313245525062084,-0.11642994709229096,-0.5568446320794522
1746650750296523000,10.27752294921875,-0.06689268505573272,-0.04802254662467167,-0.3415186044871807
1746650750306489300,10.2874892578125,-0.0637345132857561,-0.3746674253731966,-0.38076183325815943
1746650750316455200,10.297455078125,-0.04066577238738536,-0.5838870989143848,-0.40456908103153105
1746650750326420200,10.307420166015625,-0.025243162328004835,-0.4501704101249575,-0.38071985727995633
1746650750336386300,10.31738623046875,-0.10858370883762836,-0.038877044073399154,-0.15766648683864623
1746650750346352000,10.32735205078125,-0.028683073648810384,0.34896994340643284,0.13483561894991433
1746650750356317200,10.337317138671875,-0.10606149688363074,0.600696925548464,0.6111086851758882
1746650750366283300,10.347283203125,-0.10518003787398338,0.6754314832109958,1.000708562471345
1746650750376249000,10.3572490234375,-0.06239946528971195,0.2535296659161337,0.6080760760143399
1746650750386214100,10.367214111328124,-0.0499883120059967,0.032126583432499314,0.3319857100535184
1746650750396180200,10.37718017578125,-0.07185001520216465,0.005059603210818022,-0.0967760378723964
1746650750406146300,10.387146240234374,-0.05420563744008541,0.1232040078044869,-0.20950829949053004
1746650750416112000,10.397112060546876,-0.035059038421511646,-0.021935955742467192,-0.5257998342679813
1746650750426077200,10.4070771484375,-0.047478959533572195,-0.013350918351858854,-0.2618332560168579
1746650750436043300,10.417043212890626,-0.03431143492460251,-0.05759867741186171,-0.07153603104928043
1746650750446009000,10.427009033203126,-0.07546119143664837,-0.08067656973106786,-0.027354797886847516
1746650750455974100,10.43697412109375,-0.05556406631171703,-0.07320462641520425,-0.00918141411487013
1746650750465940200,10.446940185546875,-0.04763678044378757,-0.14336263340981675,-0.0680149259847356
1746650750475906300,10.45690625,-0.06155424663722515,-0.259597916446533,-0.3231905918424949
1746650750485871400,10.466871337890625,-0.07007774483263492,-0.3140714658414945,-0.3935989203363657
1746650750495837200,10.476837158203125,-0.010361819538474083,-0.35346385729219765,-0.33220874168705194
1746650750505803300,10.48680322265625,-0.08681611366569995,-0.11009336448190733,-0.3551096152052283
1746650750515769300,10.496769287109375,-0.038325346741080284,-0.20859748652223498,-0.5320030362896621
1746650750525734100,10.506734130859375,-0.06525485472083091,-0.14028393835052846,-0.3290091053955257
1746650750535700200,10.5167001953125,-0.07767477583289147,0.15931427231198175,0.2935545648504048
1746650750545666300,10.526666259765625,-0.10715981351435183,0.40245307525824753,0.5403088366137817
1746650750555631000,10.536631103515624,-0.08606558755934238,0.337586854528822,0.5381318579008803
1746650750565597200,10.54659716796875,-0.048210196417570114,0.13652199200112372,0.4740027192743495
1746650750575563300,10.556563232421874,-0.07320435242056846,-0.08582213419228792,0.22285580204259603
1746650750585528300,10.5665283203125,-0.06123275959789753,-0.15709860555650665,0.028412179718981495
1746650750595494100,10.576494140625,-0.05510112497508526,-0.10686532407980412,-0.23067849502488968
1746650750605460200,10.586460205078126,-0.06647182929515838,-0.08464149130666627,-0.22040839062416925
1746650750615426300,10.59642626953125,-0.033846155500411985,-0.046545331945270295,-0.30386523872353133
1746650750625391400,10.606391357421876,-0.06481587878167629,0.07448100302657112,-0.010291398350498639
1746650750635357400,10.616357421875,-0.07424129425287246,0.05981297419415787,-0.15410546988882123
1746650750645323300,10.6263232421875,-0.035925884383916855,0.10163515007505193,0.05365585350363981
1746650750655288300,10.636288330078125,-0.05297872599363327,0.14515291436007247,0.2595350986097008
1746650750665254400,10.64625439453125,-0.06195990482866764,0.05042317802561447,0.1343469769164454
1746650750675220200,10.65622021484375,-0.08814765453040599,-0.015071641197241841,-0.05066722048113588
1746650750685185300,10.666185302734375,-0.06765548612177372,0.014528035839833319,0.10002439041016623
1746650750695151400,10.6761513671875,-0.06182604931592941,0.03478873358014971,0.09665124244894832
1746650750705117200,10.6861171875,-0.056146250113844866,0.1016748244983144,0.12398730366928502
1746650750715083300,10.696083251953125,-0.0817383720099926,0.11433529463429003,0.2599121700274758
1746650750725048300,10.70604833984375,-0.0814461110651493,0.04499868702515959,0.16738536883108318
1746650750735014100,10.71601416015625,-0.05332008677721023,-0.0019029840771108864,0.08944307376896031
1746650750744980200,10.725980224609375,-0.0634995354861021,0.002417454671580344,-0.01075447668444831
1746650750754945300,10.7359453125,-0.04914075526595115,-0.03918552550068125,-0.23687066419590264
1746650750764911000,10.7459111328125,-0.07517828284204006,-0.06602585735963658,-0.40957262493986635
1746650750774877200,10.755877197265624,-0.03223053699731827,-0.1298887827980332,-0.4548717196837067
1746650750784842200,10.76584228515625,-0.027436872979998587,-0.1469525659268722,-0.2770422781244852
1746650750794808300,10.775808349609376,-0.06303893223702907,-0.21689537753453478,-0.3003208989138715
1746650750804774400,10.7857744140625,-0.06542728867828845,-0.24708476409306748,-0.3514247161474079
1746650750814740200,10.795740234375,-0.045966801404953,-0.0036339908544905483,0.05856250834218226
1746650750824705300,10.805705322265625,-0.04641279160678386,0.0972458838738501,0.05650534291693475
1746650750834671400,10.81567138671875,-0.0728980629503727,0.06569710032930598,-0.12310653877938166
1746650750844637400,10.825637451171875,-0.05344166733026504,0.06394258481217548,0.14112086409870533
1746650750854602200,10.835602294921875,-0.09070610684156417,0.167098003257066,0.38977695089541375
1746650750864568300,10.845568359375,-0.07439443898797035,0.005480349373538047,0.011353556822449899
1746650750874534400,10.855534423828125,-0.04640986899733543,-0.06507538823438808,-0.15566429843707008
1746650750884499200,10.865499267578125,-0.06810849058628082,-0.01314270069496706,-0.05153902574644889
1746650750894465300,10.87546533203125,-0.04985504101514816,0.06489570255223662,0.10639049137597903
1746650750904431400,10.885431396484375,-0.07738426845371722,0.03582503609163686,-0.14472599418489263
1746650750914397200,10.895397216796875,-0.05089081380367279,0.03430516958059743,-0.0030967924049822614
1746650750924362200,10.9053623046875,-0.05342997689247131,-0.0369317552245222,0.07462942135420161
1746650750934328300,10.915328369140624,-0.02948620672523975,-0.09241029867725446,-0.11808944126972928
1746650750944294100,10.925294189453124,-0.07542845821082592,-0.01571885305959731,0.005426239999546669
1746650750954259500,10.935259521484374,-0.049693128451704975,0.051310445721540594,-0.08105212504519149
1746650750964225300,10.945225341796874,-0.032037060251832006,0.05439885845724493,-0.09254464738033712
1746650750974191000,10.955191162109376,-0.04715104275345802,-0.0759087342747487,-0.16814933894090353
1746650750984157400,10.965157470703126,-0.05732289267778396,-0.19136833849754184,-0.3226682119362056
1746650750994122200,10.975122314453126,-0.054475102031230925,-0.05209454530393704,-0.14029506253274157
1746650751004088000,10.985088134765626,-0.07842296385169029,0.14234401268549263,0.22449761443287133
1746650751014054400,10.995054443359376,-0.06960019044876098,0.15374410749683157,0.1992045485485345
1746650751024019200,11.005019287109375,-0.04581248762607574,0.03499569086171687,0.22367568532442672
1746650751033985300,11.0149853515625,-0.06018178924024105,-0.050701154716778545,0.09856898570377379
1746650751043951400,11.024951416015625,-0.0709586193203926,-0.11072495865002274,0.05825443790685385
1746650751053916200,11.034916259765625,-0.03728957395255565,-0.08539050130937248,0.008838244966696947
1746650751063882200,11.04488232421875,-0.04911620534658432,-0.10172388780442997,0.016418530328129417
1746650751073848300,11.054848388671875,-0.041779871109127995,-0.07820181364798919,-0.11334307785970159
1746650751083814400,11.064814453125,-0.052850715699791904,-0.04189177051838487,-0.40222098353542385
1746650751093779200,11.074779296875,-0.07634498853385448,0.08722714215200394,0.10434537714812904
1746650751103745300,11.084745361328125,-0.08084113090932368,0.18698818718455731,0.6175517603680492
1746650751113711400,11.09471142578125,-0.08054594735503197,0.15369014881988988,0.22172171997874973
1746650751123676400,11.104676513671874,-0.03176233496367931,-0.030385384054668247,-0.3412417603071779
1746650751133642200,11.114642333984374,-0.038792379730939866,-0.10034746661838144,-0.3729566393999383
1746650751143608300,11.1246083984375,-0.045673955938220025,-0.03205846836604178,-0.41885194647125895
1746650751153574100,11.13457421875,-0.07020984677970409,-0.08533088007662445,-0.48996619474478065
1746650751163539200,11.144539306640626,-0.048209027373790736,-0.001289473554957658,-0.10657786717424168
1746650751173505300,11.15450537109375,-0.04700198967158794,0.024511815846152602,0.28446638197693974
1746650751183471000,11.16447119140625,-0.05507715957760811,-0.02170868632523343,0.3172065855294466
1746650751193436400,11.1744365234375,-0.06479951216876506,-0.050751661061309274,0.27866335825398564
1746650751203402200,11.18440234375,-0.08261223223507404,-0.09564619359225034,0.48770562940165396
1746650751213368000,11.1943681640625,-0.06705576666295528,-0.1527089557628147,0.27536764117684215
1746650751223333400,11.20433349609375,-0.05703413886427879,-0.1609179811815731,-0.1312922563877888
1746650751233299200,11.21429931640625,-0.07005144134759902,-0.04918371762484312,0.030066143771354106
1746650751243265300,11.224265380859375,-0.038326515784859655,0.008093107421509921,-0.09971050215540453
1746650751253231400,11.2342314453125,-0.03966799352169036,0.0316218305144459,-0.19928903022790326
1746650751263196200,11.244196044921875,-0.049235447812080384,0.017460984019190072,-0.3132698671350255
1746650751273162200,11.254162353515625,-0.05310848985314369,-0.04603506260188296,-0.3662793901257217
1746650751283128300,11.26412841796875,-0.04112345302700996,-0.01350313150519505,0.030985761100612578
1746650751293093000,11.274093017578124,-0.06521101557910441,0.06106942226234823,0.16391581129068508
1746650751303059500,11.2840595703125,-0.09170037857592106,0.15461513644400984,0.26118703053519127
1746650751313025300,11.294025390625,-0.09574760814011096,0.10098897939231247,0.25864246061891316
1746650751322990000,11.303989990234374,-0.07824000850021838,0.03044677711939439,0.18299129956811666
1746650751332956400,11.313956298828124,-0.042320553857088085,-0.028686434649676084,-0.22335474627437069
1746650751342922200,11.323922119140626,-0.040514965739846226,-0.028425829218421128,-0.32084574574939906
1746650751352888300,11.333888427734376,-0.05383446604013443,-0.029502482006605713,-0.06206185366606805
1746650751362853400,11.343853271484376,-0.12041910806000232,-0.010588814961072057,-0.01333995856642723
1746650751372819200,11.353819091796876,-0.015366495957970619,-0.02020343286143616,-0.26506540633849796
1746650751382785300,11.363785400390626,-0.02567570852637291,0.03735924165528268,-0.2643030984628014
1746650751392750300,11.373750244140625,-0.03704641284644603,0.020343151859380303,-0.08715836036526597
1746650751402716200,11.383716064453125,-0.12458674913346766,-0.002097319339122623,0.18550116349719464
1746650751412682200,11.39368212890625,-0.05485387221574783,-0.04597913116356358,0.055366525312466545
1746650751422648000,11.40364794921875,-0.03301379632949829,-0.06034315381441265,0.2340164986074902
1746650751432613400,11.41361328125,-0.08196692006886006,-0.04663697401778772,0.26702846830608323
1746650751442579200,11.4235791015625,-0.1292740301668644,-0.009366780619136988,0.31848453304339197
1746650751452545300,11.433545166015625,-0.0531254409879446,0.07734835689011961,0.28446481107436117
1746650751462510300,11.44351025390625,-0.061061494684219356,-0.010041921668034047,-0.12435644750893116
1746650751472475600,11.4534755859375,-0.022011925321817397,-0.027729992441367358,-0.04106741199083626
1746650751482441700,11.463441650390624,-0.09294657924473285,-0.009899280060641467,-0.04172640562253073
1746650751492406800,11.47340673828125,-0.041326866644620895,0.0067359206588938824,-0.4294320118702948
1746650751502372900,11.483372802734374,-0.03773907128572464,0.035546420079655944,-0.030947904175100845
1746650751512339000,11.4933388671875,-0.07769406505525112,-0.012309647404309362,-0.03349104931927286
1746650751522304800,11.5033046875,-0.06078735391795635,-0.043054439355898644,-0.019998567072255537
1746650751532269800,11.513269775390626,-0.053451604202389716,-0.012882825916074215,0.24147397500658407
1746650751542236000,11.52323583984375,-0.0742529846906662,0.03282943447222933,0.18948226902261375
1746650751552201700,11.53320166015625,-0.07335282098054885,0.021557897944003344,0.20766038833521305
1746650751562166800,11.543166748046875,-0.05359539658725261,-0.0676388455142267,0.1369679913361091
1746650751572132900,11.5531328125,-0.057926703789830204,-0.09008026656080037,-0.21701569771226495
1746650751582098700,11.5630986328125,-0.04759703295528889,-0.006460355120524764,-0.18510810905899852
1746650751592064800,11.573064697265625,-0.06510346355140209,0.05185275417100638,-0.03878376259964425
1746650751602029800,11.58302978515625,-0.0917331118017435,0.045192857890389855,0.05619018515369389
1746650751611995600,11.59299560546875,-0.05192424850463867,0.04197318345783278,0.09579159341230988
1746650751621961700,11.602961669921875,-0.06059153908491134,0.05876954782214015,0.11782231476614251
1746650751631926800,11.6129267578125,-0.06626900019943714,0.007288348643574864,-0.14723120020516217
1746650751641892600,11.622892578125,-0.060578095081448555,-0.03956210372811183,-0.5136131739225238
1746650751651858700,11.632858642578125,-0.049797173348069185,-0.015350604269094764,-0.4552822001807391
1746650751661824800,11.64282470703125,-0.05861994675099849,-0.052970159094687545,-0.14500393434343858
1746650751671789800,11.652789794921874,-0.09138590579926967,-0.09753251879550516,-0.19889354637060314
1746650751681756000,11.662755859375,-0.08869593606293201,-0.04533526203576475,0.11863546691308728
1746650751691721700,11.6727216796875,-0.08406652269661426,-0.01916517585488036,0.2937179935174994
1746650751701686800,11.682686767578126,-0.09140753310918807,-0.033092359724733976,-0.04165895270977635
1746650751711652900,11.69265283203125,-0.05504851800501346,-0.009359474095515906,-0.20570801215842366
1746650751721619000,11.702618896484376,-0.03305003668665886,-0.008799520391505212,-0.16746080868747085
1746650751731583700,11.712583740234376,-0.05130582434535026,-0.05508819242827594,-0.2174474401930347
1746650751741549800,11.7225498046875,-0.05325228223800659,-0.01685271592773497,-0.04316793706719763
1746650751751516000,11.732515869140625,-0.07135901681482791,-0.029348917146399617,-0.14289830383369698
1746650751761481700,11.742481689453125,-0.04114157320559025,-0.01644468311611563,-0.20155290177296845
1746650751771446800,11.75244677734375,-0.09157938254475594,0.0032580702141858636,-0.06539674284297507
1746650751781412900,11.762412841796875,-0.05940963582396507,-0.01960809731679037,-0.03452967165200971
1746650751791378700,11.772378662109375,-0.050882045975327486,-0.018863580826111136,0.12872202230729163
1746650751801343700,11.78234375,-0.05223404510617256,-0.06926615445511415,0.11721640302855521
1746650751811309800,11.792309814453125,-0.06660451576411723,-0.03016985987415537,0.19694009248157962
1746650751821275600,11.802275634765625,-0.05119651875197887,-0.026554171861335633,0.11818300130469724
1746650751831241700,11.81224169921875,-0.04536357481479644,-0.026921562135312705,0.14144805935961194
1746650751841206800,11.822206787109375,-0.0715466483414173,0.007996350782457739,0.2258990056633949
1746650751851172600,11.832172607421874,-0.027714520877599715,0.0076146945211105046,0.144641220244579
1746650751861139000,11.842138916015625,-0.08772738329172133,-0.05305812963908538,-0.0993052823553793
1746650751871103700,11.852103759765624,-0.052256256937980645,-0.060566788236144926,-0.0742892341809813
1746650751881069600,11.862069580078124,0.005669277808070182,-0.033666451551951464,-0.05266655477192252
1746650751891036000,11.872035888671874,-0.027395956447720526,0.009072437315061688,-0.038821697156969454
1746650751901000700,11.882000732421876,-0.12361001305580138,0.01991741899428889,0.3006287227540277
1746650751910966800,11.891966796875,-0.04805296002924442,-0.0637718678877689,0.2042744722239673
1746650751920932900,11.901932861328126,-0.12421440868973731,-0.0490667767142877,0.0678046625012299
1746650751930898700,11.911898681640626,0.004775543838739395,0.028646504498086867,0.018075394157064145
1746650751940863700,11.92186376953125,-0.10042436777949333,0.020614296950958667,-0.08204473454542457
1746650751950829800,11.931829833984375,-0.05567746355831623,0.038023130657803265,-0.013433093909709714
1746650751960796000,11.9417958984375,-0.018706454035639763,0.0722402383624576,0.15217077549919486
1746650751970760700,11.9517607421875,-0.06149053375124931,-0.07567985742231831,-0.2591444187916815
1746650751980726800,11.961726806640625,-0.06552782644331455,-0.06664722239468246,-0.22889645218001678
1746650751990692900,11.97169287109375,-0.09275310249924659,-0.12879594606002792,-0.029737135579274033
1746650752000658700,11.98165869140625,-0.01732932046353817,-0.13978656502133235,0.2639873287782073
1746650752010623700,11.991623779296875,-0.08585632872283458,-0.20542908561918882,0.27568885422153394
1746650752020589800,12.00158984375,-0.053829789865016936,-0.27817646978618576,-0.05895232507709879
1746650752030555600,12.0115556640625,-0.06847615485489368,-0.16772915903376415,-0.17117500690501183
1746650752040520700,12.021520751953124,-0.046313422885537144,0.048293034129124134,-0.13295072765192018
