time,seconds_elapsed,z,y,x
1746650740041851600,0.0228515625,0.0003267227439209819,-0.003185904584825039,0.0018055193359032273
1746650740051817700,0.032817626953125,0.002338208258152008,-0.0038032252341508865,-0.003157814033329487
1746650740061782500,0.042782470703125,-0.001544044353067875,-0.0018086368218064308,-0.00018977175932377577
1746650740071748600,0.05274853515625,-0.000979187898337841,-0.0033101271837949753,-0.0023762269411236048
1746650740081714700,0.062714599609375,0.00028472323901951313,-0.003655092790722847,-0.00041059229988604784
1746650740091679700,0.0726796875,-0.0001626878511160612,-0.003092899452894926,-0.0015674694441258907
1746650740101645800,0.082645751953125,-0.0010991848539561033,-0.0026461011730134487,0.0018506005872040987
1746650740111611600,0.092611572265625,-0.0009417920373380184,-0.0015848316252231598,-0.001855987124145031
1746650740121576700,0.10257666015625,0.0011496895458549261,-0.0005931700579822063,-0.00197446602396667
1746650740131542800,0.112542724609375,0.00009747454896569252,-0.0016429880633950233,-0.003430416341871023
1746650740141507600,0.122507568359375,-0.0019685658626258373,-0.0031548840925097466,-0.0009853825904428959
1746650740151473700,0.1324736328125,0.001565981307066977,-0.0037463721819221973,-0.0008445014245808125
1746650740161439700,0.142439697265625,-0.0015614053700119257,-0.0021808273158967495,-0.0024612932465970516
1746650740171404500,0.152404541015625,-0.0027201466728001833,0.00034597981721162796,-0.0009174586739391088
1746650740181370600,0.16237060546875,0.00029269105289131403,-0.002831190824508667,0.00022254546638578176
1746650740191336700,0.172336669921875,-0.0006338227540254593,-0.004344399087131023,-0.003232639515772462
1746650740201301500,0.182301513671875,0.0009163765935227275,-0.00011417455971240997,-0.000461447867564857
1746650740211267600,0.192267578125,-0.0014359934721142054,0.003815319389104843,-0.0027136830613017082
1746650740221233700,0.202233642578125,0.001971765886992216,-0.00014611147344112396,-0.0005069453618489206
1746650740231198700,0.21219873046875,-0.0027228547260165215,0.003271256573498249,0.0004850820987485349
1746650740241164800,0.222164794921875,0.0015946949133649468,0.0035599032416939735,0.000049186928663402796
1746650740251130600,0.232130615234375,0.00010598776862025261,0.004343139007687569,-0.0010078216437250376
1746650740261095700,0.242095703125,0.0011226856149733067,-0.0025052796117961407,0.0005638496368192136
1746650740271061800,0.252061767578125,0.000284588779322803,0.002623968757688999,0.001591030741110444
1746650740281027800,0.26202783203125,0.0007688573095947504,0.005097738467156887,-0.000004395900759845972
1746650740290992600,0.27199267578125,-0.0007496771868318319,0.005313188768923283,-0.0004262405855115503
1746650740300958700,0.281958740234375,-0.0010917463805526495,0.00021740980446338654,-0.0009226362453773618
1746650740310924800,0.2919248046875,0.0016260095871984959,0.0020603174343705177,0.0026161721907556057
1746650740320889600,0.3018896484375,0.0012761980760842562,0.0015558144077658653,-0.0008252295083366334
1746650740330855700,0.311855712890625,0.000059932470321655273,-0.0003597969189286232,-0.0014936828520148993
1746650740340821800,0.32182177734375,-0.0015438830014318228,-0.0001382669433951378,0.001286557875573635
1746650740350786600,0.33178662109375,-0.001499940874055028,0.0016822703182697296,0.001160856569185853
1746650740360752600,0.341752685546875,-0.00033346423879265785,0.003487055189907551,0.0006544819916598499
1746650740370718700,0.35171875,-0.0004770087543874979,0.0017549358308315277,0.0007942979573272169
1746650740380683800,0.361683837890625,-0.0006361000705510378,0.0008622016757726669,-0.0005303980433382094
1746650740390649900,0.37164990234375,0.000785761745646596,-0.0003202417865395546,-0.0018100468441843987
1746650740400615700,0.38161572265625,0.0002507668687030673,0.002391285263001919,-0.0016751311486586928
1746650740410580700,0.391580810546875,-0.0004941192455589771,-0.001903594471514225,0.0015398368705064058
1746650740420546800,0.401546875,-0.0018253154121339321,-0.00613902322947979,-0.00019705281010828912
1746650740430512600,0.4115126953125,-0.000668172026053071,-0.0032375091686844826,-0.0007909377454780042
1746650740440477700,0.421477783203125,0.0012374662328511477,0.002554967999458313,-0.001035161316394806
1746650740450443800,0.43144384765625,0.0008936520898714662,0.0037315525114536285,0.00016885384684428573
1746650740460409600,0.44140966796875,-0.0008549611084163189,0.0008069714531302452,0.0015773456543684006
1746650740470374700,0.451374755859375,-0.0008578905835747719,0.005266434513032436,-0.0011635797563940287
1746650740480340700,0.4613408203125,-0.00019717635586857796,0.0031032105907797813,-0.0007018314790911973
1746650740490306600,0.471306640625,-0.001074155094102025,-0.001263574231415987,0.00042095722164958715
1746650740500271900,0.48127197265625,0.001641962444409728,-0.00004925578832626343,0.0012221266515552998
1746650740510237700,0.49123779296875,0.01065223477780819,0.007031024433672428,0.0038019309286028147
1746650740520203500,0.50120361328125,0.02517014928162098,0.006948077119886875,-0.00014592381194233894
1746650740530168800,0.5111689453125,0.04997776448726654,0.01101392600685358,-0.006131910718977451
1746650740540134700,0.521134765625,0.06278395652770996,0.004713521338999271,-0.00210963049903512
1746650740550100700,0.531100830078125,0.07053535431623459,0.0023734010756015778,-0.0021346642170101404
1746650740560065800,0.541065673828125,0.06306044012308121,-0.020256951451301575,-0.010966603644192219
1746650740570031600,0.551031494140625,0.04978910833597183,-0.021417291834950447,-0.008029403164982796
1746650740579997700,0.560997802734375,0.04739673063158989,-0.016089022159576416,-0.005499307531863451
1746650740589962800,0.570962646484375,0.05851808935403824,-0.018290922045707703,-0.00698481872677803
1746650740599928600,0.580928466796875,0.06950908154249191,-0.016478270292282104,-0.006103462539613247
1746650740609894700,0.590894775390625,0.07933241873979568,-0.02403099462389946,-0.011564274318516254
1746650740619859700,0.600859619140625,0.08750232309103012,-0.031095996499061584,-0.010970842093229294
1746650740629825500,0.610825439453125,0.09730914235115051,-0.03444092720746994,-0.007868525572121143
1746650740639791600,0.62079150390625,0.10482140630483627,-0.042128078639507294,-0.011720451526343822
1746650740649756700,0.630756591796875,0.1077122688293457,-0.03478627651929855,-0.0110703743994236
1746650740659722800,0.64072265625,0.11497312784194946,0.012745880521833897,0.0013210816541686654
1746650740669688600,0.6506884765625,0.10503660887479782,0.014969619922339916,0.0059091756120324135
1746650740679653600,0.660653564453125,0.0976794883608818,0.01957034319639206,0.004670158959925175
1746650740689619700,0.67061962890625,0.08581084758043289,0.06204935908317566,0.01964671164751053
1746650740699585800,0.680585693359375,0.07806945592164993,0.029826924204826355,0.007566493470221758
1746650740709550600,0.690550537109375,0.05940789356827736,0.02511339634656906,0.007601647172123194
1746650740719516700,0.7005166015625,0.04860283434391022,0.029604844748973846,0.008037170395255089
1746650740729482800,0.710482666015625,0.03371842950582504,-0.015225210227072239,-0.006684783846139908
1746650740739447600,0.720447509765625,0.023859793320298195,0.012889877893030643,0.0028145257383584976
1746650740749413600,0.73041357421875,0.01871776208281517,0.027355901896953583,0.009045523591339588
1746650740759379700,0.740379638671875,0.012623528018593788,-0.04103284701704979,-0.011884641833603382
1746650740769344800,0.7503447265625,0.0068535227328538895,0.004541296511888504,0.0001240839483216405
1746650740779310600,0.760310546875,0.008421676233410835,0.017273057252168655,0.006276265252381563
1746650740789276700,0.770276611328125,0.0166937205940485,-0.019498806446790695,-0.006998793687671423
1746650740799241700,0.78024169921875,0.024687567725777626,0.004872355610132217,0.0007904658559709787
1746650740809207600,0.79020751953125,0.03863054886460304,0.02697233110666275,0.012356841005384922
1746650740819174000,0.800173828125,0.046492114663124084,0.018295500427484512,0.00502008618786931
1746650740829138700,0.810138671875,0.053000882267951965,0.005456666462123394,0.00047726574121043086
1746650740839104800,0.820104736328125,0.05409003049135208,0.011141471564769745,0.00460944976657629
1746650740849070800,0.83007080078125,0.05740034207701683,0.022683078423142433,0.0035487127024680376
1746650740859035600,0.84003564453125,0.06379801034927368,0.02351865917444229,0.007563324645161629
1746650740869001700,0.850001708984375,0.06809742003679276,0.0048554930835962296,0.0016724120359867811
1746650740878967800,0.8599677734375,0.07183939218521118,-0.007726728916168213,-0.002354391384869814
1746650740888932600,0.8699326171875,0.07203833013772964,-0.020752782002091408,-0.006252460181713104
1746650740898898700,0.879898681640625,0.07231178879737854,-0.027082715183496475,-0.009839647449553013
1746650740908864800,0.88986474609375,0.07542608678340912,-0.015126189216971397,-0.0035394069273024797
1746650740918829600,0.89982958984375,0.06845169514417648,-0.01945493184030056,-0.005153861828148365
1746650740928795600,0.909795654296875,0.056925274431705475,-0.022024348378181458,-0.0056388238444924355
1746650740938761700,0.91976171875,0.04570005461573601,-0.0026069609448313713,0.0032753804698586464
1746650740948726500,0.9297265625,0.028476592153310776,0.016217857599258423,0.00591643713414669
1746650740958692900,0.93969287109375,0.003997773863375187,0.013779147528111935,0.004568759817630053
1746650740968658700,0.94965869140625,-0.0008321350906044245,0.02941509708762169,0.007163211237639189
1746650740978623700,0.959623779296875,0.01159345917403698,0.013115203008055687,0.004678495228290558
1746650740988589800,0.96958984375,0.028474703431129456,0.006800848059356213,0.0012539364397525787
1746650740998555600,0.9795556640625,0.04507928714156151,0.01463678851723671,0.0051414561457931995
1746650741008520700,0.989520751953125,0.0539311021566391,0.007362630218267441,-0.0008418678189627826
1746650741018486800,0.99948681640625,0.05575266852974892,0.001417011022567749,-0.0019207826117053628
1746650741028452600,1.00945263671875,0.04922126606106758,0.019427170976996422,0.005229006055742502
1746650741038417700,1.019417724609375,0.036173369735479355,0.010042447596788406,0.0022797861602157354
1746650741048383700,1.0293837890625,0.02049587294459343,-0.014045311138033867,-0.0029434715397655964
1746650741058349600,1.039349609375,0.014227243140339851,-0.004258706700056791,-0.0031509085092693567
1746650741068315000,1.04931494140625,0.021108850836753845,-0.0012730369344353676,-0.0005151781369931996
1746650741078280700,1.05928076171875,0.027660492807626724,-0.013268979266285896,-0.006251627113670111
1746650741088246500,1.06924658203125,0.029431231319904327,0.00885150209069252,0.003963992465287447
1746650741098211800,1.0792119140625,0.029606139287352562,0.013081486336886883,0.004037322476506233
1746650741108177700,1.089177734375,0.01871247962117195,-0.002439682837575674,0.0034578186459839344
1746650741118143700,1.099143798828125,-0.005265579558908939,0.020301517099142075,0.006103066727519035
1746650741128108800,1.10910888671875,-0.02491171844303608,0.023332994431257248,0.0036146086640655994
1746650741138074600,1.11907470703125,-0.03566410765051842,0.005004153586924076,0.0034724764991551638
1746650741148040700,1.129040771484375,-0.02834600955247879,0.007227626629173756,0.00039146532071754336
1746650741158005800,1.139005859375,-0.0050156330689787865,0.005539244972169399,0.007350604981184006
1746650741167971600,1.1489716796875,0.019078783690929413,0.008481772616505623,0.003070904640480876
1746650741177937000,1.15893701171875,0.053420696407556534,0.006544077768921852,0.002363096456974745
1746650741187902700,1.16890283203125,0.0793476402759552,0.008514017798006535,0.0005934260552749038
1746650741197868500,1.17886865234375,0.0823085755109787,0.0053305961191654205,-0.0020384727977216244
1746650741207833900,1.188833740234375,0.08753503113985062,0.009020139463245869,0.0019357625860720873
1746650741217799700,1.198799560546875,0.08367136120796204,0.007950738072395325,-0.0007323187892325222
1746650741227765800,1.208765869140625,0.07217449694871902,0.004993030801415443,-0.0008566883625462651
1746650741237730800,1.218730712890625,0.05306588113307953,0.0017570657655596733,-0.000971956760622561
1746650741247696600,1.228696533203125,0.03688424825668335,0.005075098015367985,-0.0007064396049827337
1746650741257662700,1.238662841796875,0.028743723407387733,0.0054454198107123375,-0.00007327954517677426
1746650741267627800,1.248627685546875,0.022131627425551414,0.007449980825185776,0.0003482988686300814
1746650741277593600,1.258593505859375,0.01540970616042614,0.002421092242002487,-0.0011630917433649302
1746650741287559700,1.2685595703125,0.009376049041748047,-0.003959841560572386,-0.00005867879372090101
1746650741297524700,1.278524658203125,0.002193872118368745,-0.004385638982057571,-0.0018378901295363903
1746650741307490600,1.288490478515625,-0.0005680921021848917,-0.0025318125262856483,0.0006881182198412716
1746650741317456600,1.29845654296875,-0.009165944531559944,-0.002773403190076351,-0.0008895850041881204
1746650741327421700,1.308421630859375,-0.011504998430609703,-0.005754545331001282,-0.0017409976571798325
1746650741337387800,1.3183876953125,-0.008755961433053017,-0.0006070844829082489,-0.0017939149402081966
1746650741347353600,1.328353515625,-0.0035745149943977594,-0.005285725928843021,0.0016130669973790646
1746650741357318700,1.338318603515625,-0.000740276649594307,-0.00231998972594738,0.0002043014974333346
1746650741367284700,1.34828466796875,0.0007132766768336296,0.002708856947720051,0.001068497309461236
1746650741377250600,1.35825048828125,0.003291401080787182,-0.0028113224543631077,0.0018943669274449348
1746650741387215600,1.368215576171875,0.003795803990215063,-0.0030811005271971226,-0.0013190032914280891
1746650741397181700,1.378181640625,0.01045626774430275,-0.005534711293876171,-0.0017003777902573347
1746650741407147500,1.3881474609375,0.01658926159143448,-0.0033328095450997353,0.0007337513961829245
1746650741417112600,1.398112548828125,0.016637545078992844,-0.0026230975054204464,0.000313976954203099
1746650741427078700,1.40807861328125,0.015864429995417595,-0.0004954980686306953,0.001343022333458066
1746650741437044700,1.418044677734375,0.008009068667888641,0.001894114539027214,0.0013922813814133406
1746650741447009800,1.428009765625,-0.00445425882935524,-0.002103024162352085,0.0016615267377346754
1746650741456975600,1.4379755859375,-0.020265057682991028,-0.004001489374786615,0.001085564843378961
1746650741466941700,1.447941650390625,-0.02286510169506073,-0.007630845066159964,-0.0003597326285671443
1746650741476906800,1.45790673828125,-0.020313464105129242,-0.00773345772176981,-0.0026357267051935196
1746650741486872600,1.46787255859375,-0.018344590440392494,-0.01100967824459076,-0.0008596644038334489
1746650741496839000,1.4778388671875,-0.01702972501516342,-0.010481390170753002,-0.0022744289599359035
1746650741506803700,1.4878037109375,-0.008857816457748413,-0.015218887478113174,-0.002518640598282218
1746650741516769500,1.49776953125,-0.0025066486559808254,-0.0011201947927474976,0.0019990524742752314
1746650741526736000,1.50773583984375,-0.001176133519038558,-0.005302156321704388,0.0006283234688453376
1746650741536700700,1.51770068359375,0.00031384406611323357,-0.004853864666074514,-0.001653379644267261
1746650741546666500,1.52766650390625,0.0001508586574345827,0.010510710068047047,-0.0016512491274625063
1746650741556632800,1.5376328125,0.0013545048423111439,0.00021701958030462265,-0.0024944525212049484
1746650741566597600,1.54759765625,-0.0003656309563666582,0.007335116155445576,0.0024331945460289717
1746650741576563700,1.557563720703125,-0.006294933147728443,-0.0018678251653909683,0.00015022954903542995
1746650741586529800,1.56752978515625,-0.010781294666230679,-0.0007583522237837315,-0.0006377998506650329
1746650741596494600,1.57749462890625,-0.014096193946897984,-0.002816628199070692,-0.0020787797402590513
1746650741606461000,1.5874609375,-0.01759398728609085,-0.0053801871836185455,0.0002554809325374663
1746650741616426800,1.5974267578125,-0.02075294964015484,-0.006309112533926964,-0.0012359506217762828
1746650741626391600,1.6073916015625,-0.02347203716635704,-0.01296142302453518,-0.0050511956214904785
1746650741636358000,1.61735791015625,-0.024728884920477867,-0.004116577561944723,-0.0024796556681394577
1746650741646323700,1.62732373046875,-0.0228167362511158,0.0038505345582962036,0.0016349281650036573
1746650741656288500,1.63728857421875,-0.025039389729499817,-0.007998873479664326,-0.0020108690951019526
1746650741666254800,1.6472548828125,-0.024921942502260208,-0.0011124713346362114,0.001970290206372738
1746650741676220700,1.657220703125,-0.01846637763082981,0.0036853980273008347,0.0018810178153216839
1746650741686185500,1.667185546875,-0.01658645272254944,0.00769425556063652,0.0010351978708058596
1746650741696151800,1.67715185546875,-0.00954003632068634,0.0047201793640851974,0.00010295183164998889
1746650741706116600,1.68711669921875,-0.00493489857763052,-0.007460054475814104,-0.0031588878482580185
1746650741716082700,1.697082763671875,-0.00862433947622776,-0.006717790383845568,-0.0009915942791849375
1746650741726048800,1.707048828125,-0.007160932291299105,-0.011938385665416718,-0.004442518576979637
1746650741736013600,1.717013671875,-0.008200282230973244,-0.0042855460196733475,0.00005877733929082751
1746650741745980000,1.72697998046875,-0.005730200093239546,0.004700758494436741,0.0029722757171839476
1746650741755945700,1.73694580078125,-0.011029766872525215,0.017515992745757103,0.004584713838994503
1746650741765910500,1.74691064453125,-0.009065685793757439,0.008439140394330025,0.0021037128753960133
1746650741775876900,1.756876953125,-0.0033399518579244614,0.004945953376591206,0.001724861329421401
1746650741785842700,1.7668427734375,0.006263406947255135,0.0016862442716956139,-0.0014453656040132046
1746650741795807500,1.776807373046875,0.008946049027144909,-0.00951888132840395,-0.00043903704499825835
1746650741805773800,1.78677392578125,0.017542466521263123,-0.0016007707454264164,-0.00008217347203753889
1746650741815739600,1.79673974609375,0.013452302664518356,-0.018780803307890892,-0.009125325828790665
1746650741825704700,1.80670458984375,0.008307874202728271,-0.04299665987491608,-0.01219302136451006
1746650741835670800,1.8166708984375,0.0008226508507505059,-0.03470480814576149,-0.009823223575949669
1746650741845636600,1.82663671875,-0.0014903044793754816,-0.010348867624998093,-0.003907809965312481
1746650741855601700,1.8366015625,0.001301692333072424,0.007333804853260517,0.0010881071211770177
1746650741865567700,1.846567626953125,0.00589457992464304,0.031177885830402374,0.008430708199739456
1746650741875533600,1.856533447265625,0.009247458539903164,0.018536802381277084,0.0071189613081514835
1746650741885499000,1.866498779296875,0.007106543518602848,-0.0016214619390666485,-0.003484414191916585
1746650741895464700,1.876464599609375,0.0064755999483168125,-0.0021233255974948406,-0.0014538567047566175
1746650741905430800,1.8864306640625,0.008800540119409561,0.001422407105565071,0.0037387744523584843
1746650741915395800,1.896395751953125,0.0032880413345992565,0.0026689711958169937,0.000632659939583391
1746650741925361700,1.906361572265625,-0.0028702523559331894,0.019653812050819397,0.003777586854994297
1746650741935327700,1.91632763671875,-0.008876745589077473,0.005170744843780994,0.002150395419448614
1746650741945292800,1.926292724609375,-0.010852810926735401,-0.007446779869496822,-0.005881165619939566
1746650741955258600,1.936258544921875,-0.006796162575483322,-0.007241611834615469,-0.0027004729490727186
1746650741965224700,1.946224609375,-0.004890936426818371,-0.020232511684298515,-0.0022986021358519793
1746650741975189800,1.956189697265625,-0.014081772416830063,-0.04193221405148506,-0.014430100098252296
1746650741985155600,1.966155517578125,-0.0159907266497612,-0.03000285103917122,-0.00707977544516325
1746650741995121700,1.97612158203125,-0.02403084933757782,-0.014012557454407215,-0.002945852931588888
1746650742005086700,1.986086669921875,-0.027004800736904144,0.003595997579395771,0.0003966805525124073
1746650742015052800,1.996052734375,-0.021048929542303085,0.01972377300262451,0.005656087305396795
1746650742025018600,2.0060185546875,-0.01171588059514761,0.016869930550456047,0.007103515323251486
1746650742034983700,2.015983642578125,-0.015932053327560425,-0.018307600170373917,-0.008268367499113083
1746650742044949800,2.02594970703125,-0.012514153495430946,-0.04397834092378616,-0.012003983370959759
1746650742054915600,2.03591552734375,-0.008049219846725464,-0.05805032327771187,-0.018300840631127357
1746650742064880600,2.045880615234375,0.00257306476123631,-0.06413964182138443,-0.019319234415888786
1746650742074846700,2.0558466796875,0.006514358799904585,-0.05989191681146622,-0.019110465422272682
1746650742084811800,2.065811767578125,0.010194847360253334,-0.03379453718662262,-0.013819562271237373
1746650742094777600,2.075777587890625,0.014107685536146164,-0.01206010952591896,-0.0011012917384505272
1746650742104743700,2.08574365234375,0.0028041652403771877,-0.000038067810237407684,0.0011682541808113456
1746650742114708700,2.095708740234375,-0.007234948221594095,-0.010364660993218422,-0.005278366152197123
1746650742124674800,2.1056748046875,-0.020574456080794334,-0.015452897176146507,-0.011848384514451027
1746650742134640600,2.115640625,-0.02694152109324932,-0.02655528113245964,-0.011552741751074791
1746650742144605700,2.125605712890625,-0.019726218655705452,0.02211744897067547,0.004209976177662611
1746650742154571800,2.13557177734375,-0.015413906425237656,0.04686923325061798,0.013742879033088684
1746650742164537600,2.14553759765625,-0.020590558648109436,0.01779337227344513,0.005541939754039049
1746650742174502700,2.155502685546875,-0.024880047887563705,0.024707388132810593,0.00545586459338665
1746650742184468700,2.16546875,-0.028556276112794876,0.0135237080976367,0.0046744924038648605
1746650742194434600,2.1754345703125,-0.03354839235544205,-0.020005283877253532,-0.006830965634435415
1746650742204399600,2.185399658203125,-0.029446328058838844,-0.03664418309926987,-0.011537037789821625
1746650742214365700,2.19536572265625,-0.02053520269691944,-0.0010803076438605785,-0.0014230906963348389
1746650742224331500,2.20533154296875,-0.016846459358930588,-0.006300103385001421,-0.002410857006907463
1746650742234296800,2.215296875,-0.01400699745863676,-0.010242913849651814,-0.005203484557569027
1746650742244262700,2.2252626953125,-0.015175859443843365,-0.01172309834510088,-0.005004013888537884
1746650742254228500,2.235228515625,-0.02144373208284378,0.001183810643851757,0.0024343442637473345
1746650742264193800,2.24519384765625,-0.034339021891355515,-0.002848748117685318,0.0010910459095612168
1746650742274159600,2.25515966796875,-0.050296131521463394,-0.0037461728788912296,-0.0029403772205114365
1746650742284125700,2.265125732421875,-0.056794244796037674,-0.003976003732532263,-0.0008212998509407043
1746650742294090800,2.2750908203125,-0.06741120666265488,0.0034371716901659966,0.0001342793693765998
1746650742304056600,2.285056640625,-0.05875539407134056,0.020444383844733238,0.008275562897324562
1746650742314022700,2.295022705078125,-0.04490697756409645,0.001669313758611679,-0.003586835227906704
1746650742323987700,2.30498779296875,-0.03559363633394241,-0.045471034944057465,-0.015224848873913288
1746650742333953500,2.31495361328125,-0.02444447949528694,-0.018598102033138275,-0.0058225118555128574
1746650742343919900,2.324919921875,-0.020755736157298088,-0.00010644271969795227,-0.0015273657627403736
1746650742353884700,2.334884765625,-0.02887483313679695,-0.012091761454939842,-0.003668532008305192
1746650742363850500,2.3448505859375,-0.03613114729523659,-0.02145516872406006,-0.009913911111652851
1746650742373816800,2.35481689453125,-0.046978775411844254,-0.011357119306921959,-0.0031546447426080704
1746650742383781600,2.36478173828125,-0.04260692745447159,0.010181195102632046,0.00333228288218379
1746650742393747700,2.374747802734375,-0.023857416585087776,-0.0191221721470356,-0.005466932896524668
1746650742403712800,2.384712646484375,-0.0004937706980854273,-0.011338818818330765,-0.005570263601839542
1746650742413678600,2.3946787109375,0.023134592920541763,-0.0029091211035847664,-0.0029105262365192175
1746650742423644700,2.404644775390625,0.030254021286964417,0.030359620228409767,0.011009816080331802
1746650742433609700,2.414609619140625,0.025492290034890175,0.020325101912021637,0.005223794840276241
1746650742443575600,2.424575439453125,0.010579653084278107,0.022760294377803802,0.005357751622796059
1746650742453541600,2.434541748046875,0.010620441287755966,0.013232952915132046,0.002315534744411707
1746650742463506400,2.44450634765625,0.01955907605588436,0.02165040746331215,0.0017876962665468454
1746650742473472300,2.45447216796875,0.025823218747973442,0.027366453781723976,0.007231010124087334
1746650742483438600,2.4644384765625,0.028473861515522003,0.006630813702940941,0.0020753969438374043
1746650742493403400,2.4744033203125,0.026309143751859665,-0.001855657435953617,-0.0020980520639568567
1746650742503369200,2.484369140625,0.01923711970448494,-0.007774532772600651,-0.0015270703006535769
1746650742513335600,2.49433544921875,0.012274489738047123,-0.020764019340276718,-0.0049190823920071125
1746650742523300400,2.50430029296875,0.0026373080909252167,-0.0005298526957631111,0.00013506464892998338
1746650742533266400,2.514266357421875,-0.006818491034209728,0.011047235690057278,0.006147753447294235
1746650742543232500,2.524232421875,-0.019647203385829926,0.020633816719055176,0.004472625441849232
1746650742553197300,2.534197265625,-0.019857164472341537,-0.008310257457196712,-0.0009102027397602797
1746650742563163400,2.544163330078125,-0.009138206951320171,-0.026870358735322952,-0.010691726580262184
1746650742573129500,2.55412939453125,0.006027492694556713,-0.017401572316884995,-0.009372719563543797
1746650742583094300,2.56409423828125,0.011411605402827263,-0.008519663475453854,-0.0027321274392306805
1746650742593060600,2.574060546875,0.01891622692346573,-0.00588389253243804,0.0009489032672718167
1746650742603026400,2.5840263671875,0.018584664911031723,-0.01131461001932621,-0.0035116253420710564
1746650742612991200,2.5939912109375,0.022255217656493187,-0.016274195164442062,-0.00625598942860961
1746650742622957600,2.60395751953125,0.022430453449487686,-0.012176122516393661,-0.004448235500603914
1746650742632923400,2.61392333984375,0.032049648463726044,-0.00026743020862340927,-0.0025181258097290993
1746650742642888200,2.62388818359375,0.02938941866159439,0.018732361495494843,0.0044785309582948685
1746650742652854500,2.6338544921875,0.02877369336783886,0.0394887775182724,0.009557140991091728
1746650742662820400,2.6438203125,0.02673477679491043,0.03178611397743225,0.006135512143373489
1746650742672785400,2.653785400390625,0.027422528713941574,-0.0023608366027474403,-0.0016258875839412212
1746650742682751500,2.66375146484375,0.03195575997233391,-0.026361245661973953,-0.0044954437762498856
1746650742692716300,2.67371630859375,0.036801159381866455,-0.028156086802482605,-0.0077902041375637054
1746650742702682400,2.683682373046875,0.030284402891993523,-0.022635089233517647,-0.0072426581755280495
1746650742712648400,2.6936484375,0.027076972648501396,-0.005037212744355202,-0.0007325464393943548
1746650742722613200,2.70361328125,0.02071947418153286,0.013406242243945599,0.0037642011884599924
1746650742732579600,2.71357958984375,0.01222243532538414,0.01761602610349655,0.0024364888668060303
1746650742742545400,2.72354541015625,-0.003231089562177658,0.016388308256864548,0.0027163871563971043
1746650742752510200,2.73351025390625,-0.00832897424697876,0.02503807097673416,0.004711151123046875
1746650742762476500,2.7434765625,-0.008530842140316963,0.008372541517019272,0.0029737045988440514
1746650742772442400,2.7534423828125,-0.0090663842856884,-0.01211642101407051,-0.0013440463226288557
1746650742782407200,2.7634072265625,-0.005893494002521038,-0.010544889606535435,0.00006130378460511565
1746650742792373500,2.77337353515625,-0.012073666788637638,0.0018067238852381706,0.001984270056709647
1746650742802339300,2.78333935546875,-0.01091279461979866,0.0033825160935521126,0.00001592776970937848
1746650742812304400,2.793304443359375,-0.007003437727689743,-0.0037461849860846996,-0.003959630616009235
1746650742822270500,2.8032705078125,-0.0031905898358672857,-0.01254846528172493,-0.0023721205070614815
1746650742832236300,2.813236328125,0.0026578144170343876,-0.015615062788128853,-0.0019115746254101396
1746650742842201300,2.823201416015625,-0.0003534217830747366,0.00979495607316494,0.004105305299162865
1746650742852167400,2.83316748046875,0.005279165226966143,0.02334405481815338,0.0026187654584646225
1746650742862133500,2.843133544921875,0.010576725006103516,0.016014503315091133,0.008424988947808743
1746650742872098600,2.8530986328125,0.015236251056194305,0.00673756655305624,0.002550191944465041
1746650742882064400,2.863064453125,0.014591500163078308,-0.02512902021408081,-0.010288907214999199
1746650742892030500,2.873030517578125,0.01104703824967146,-0.010867444798350334,-0.0023573879152536392
1746650742901995500,2.88299560546875,-0.004365473985671997,-0.0026713008992373943,-0.0017717586597427726
1746650742911961300,2.89296142578125,-0.014997633174061775,-0.024739112704992294,-0.007837710902094841
1746650742921927400,2.902927490234375,-0.03438597545027733,-0.005952908657491207,-0.0029169879853725433
1746650742931892500,2.912892578125,-0.050293222069740295,0.021845944225788116,0.011296012438833714
1746650742941858300,2.9228583984375,-0.06150832399725914,0.030617065727710724,0.0057718176394701
1746650742951824400,2.932824462890625,-0.05247998237609863,-0.0010794633999466896,-0.0008510717307217419
1746650742961789400,2.94278955078125,-0.028730181977152824,0.019860174506902695,0.005487517919391394
1746650742971755500,2.952755615234375,0.0023758262395858765,0.004385402426123619,-0.0002243596245534718
1746650742981720300,2.96272021484375,0.01870686188340187,-0.03347942233085632,-0.01116409245878458
1746650742991686400,2.972686279296875,0.019972601905465126,-0.029131729155778885,-0.00631225248798728
1746650743001652500,2.982652587890625,0.006560123525559902,-0.008385705761611462,-0.0016216265503317118
1746650743011617500,2.992617431640625,-0.005032616667449474,-0.0047118752263486385,-0.00125304504763335
1746650743021583400,3.002583251953125,-0.017218708992004395,0.017264794558286667,0.003969147335737944
1746650743031549400,3.012549560546875,-0.02472705952823162,0.015007191337645054,0.0020964031573385
1746650743041514500,3.022514404296875,-0.020717404782772064,0.015815727412700653,0.003616801928728819
1746650743051480300,3.032480224609375,-0.006984181702136993,-0.010488804429769516,-0.0016072455327957869
1746650743061446400,3.0424462890625,0.0020271569956094027,-0.032269734889268875,-0.01168704405426979
1746650743071411500,3.052411376953125,0.0060611292719841,-0.03005027398467064,-0.007627078332006931
1746650743081377500,3.06237744140625,0.010346687398850918,-0.023002751171588898,-0.0051394193433225155
1746650743091343400,3.07234326171875,0.0038740814197808504,-0.0264301598072052,-0.00798061490058899
1746650743101308400,3.082308349609375,-0.009089654311537743,-0.03520580753684044,-0.009802750311791897
1746650743111274500,3.0922744140625,-0.03491215407848358,-0.002513785846531391,-0.0009481690940447152
1746650743121240300,3.102240234375,-0.04483962059020996,0.008194518275558949,0.0010760995792225003
1746650743131205400,3.112205322265625,-0.04573561251163483,0.013950900174677372,-0.001201482373289764
1746650743141171500,3.12217138671875,-0.04688582941889763,0.017499294131994247,0.0033756927587091923
1746650743151137300,3.13213720703125,-0.03592253848910332,0.006693357601761818,-0.0019303103908896446
1746650743161102300,3.142102294921875,-0.024952713400125504,0.002144412137567997,0.0013616230571642518
1746650743171068400,3.152068359375,-0.011345025151968002,0.01994284987449646,0.006920439191162586
1746650743181034200,3.1620341796875,-0.005791801959276199,0.02119586616754532,0.006295128725469112
1746650743190999600,3.17199951171875,0.0027054850943386555,-0.0037192548625171185,-0.000356821168679744
1746650743200965400,3.18196533203125,0.004535609390586615,0.002142629586160183,-0.0015336720971390605
1746650743210931200,3.19193115234375,0.012598349712789059,0.02391643449664116,0.004455809481441975
1746650743220896500,3.201896484375,0.021269602701067924,0.01669260859489441,0.004097613971680403
1746650743230862300,3.2118623046875,0.025667792186141014,-0.008745431900024414,-0.00012303394032642245
1746650743240828400,3.221828369140625,0.027709636837244034,-0.014519165270030499,-0.0024181462358683348
1746650743250793500,3.23179345703125,0.025691309943795204,0.0018027890473604202,0.0021366733126342297
1746650743260759300,3.24175927734375,0.022102966904640198,0.015915678814053535,0.002799267414957285
1746650743270725400,3.251725341796875,0.019796116277575493,0.021589484065771103,0.002996005117893219
1746650743280690400,3.2616904296875,0.012730482965707779,0.041268378496170044,0.009893326088786125
1746650743290656300,3.27165625,0.01345627661794424,0.0642908588051796,0.016049960628151894
1746650743300621600,3.28162158203125,0.022824477404356003,0.06652125716209412,0.020683860406279564
1746650743310587400,3.29158740234375,0.03381001949310303,0.02651098556816578,0.00872097909450531
1746650743320553200,3.30155322265625,0.03959067538380623,-0.03755161911249161,-0.008525651879608631
1746650743330518500,3.3115185546875,0.030339714139699936,-0.059285759925842285,-0.016996994614601135
1746650743340484400,3.321484375,0.010102619417011738,-0.036159664392471313,-0.011426993645727634
1746650743350450400,3.331450439453125,-0.024862781167030334,0.010435919277369976,0.002270050812512636
1746650743360415500,3.34141552734375,-0.05923113971948624,0.03706326708197594,0.009139674715697765
1746650743370381300,3.35138134765625,-0.07050159573554993,0.06061798706650734,0.011647714301943779
1746650743380347400,3.361347412109375,-0.06975831091403961,0.05478353425860405,0.01664699986577034
1746650743390312400,3.3713125,-0.04378072917461395,0.021938621997833252,0.0011765334056690335
1746650743400278300,3.3812783203125,-0.012569280341267586,-0.006393415853381157,-0.00484886858612299
1746650743410244400,3.391244384765625,0.0011723032221198082,-0.00375813664868474,-0.003165657166391611
1746650743420209400,3.40120947265625,-0.004638980142772198,-0.058352142572402954,-0.01699412241578102
1746650743430175200,3.41117529296875,-0.018430650234222412,-0.054622262716293335,-0.012409881688654423
1746650743440141300,3.421141357421875,-0.03298882022500038,-0.053830768913030624,-0.01242745853960514
1746650743450106400,3.4311064453125,-0.04635104537010193,-0.013625804334878922,-0.005231840535998344
1746650743460072400,3.441072509765625,-0.054626818746328354,0.014169872738420963,0.002205036813393235
1746650743470039000,3.4510390625,-0.05446112900972366,0.013213124126195908,0.000344958680216223
1746650743480004000,3.461004150390625,-0.04240020737051964,0.013736434280872345,0.003347406629472971
1746650743489970000,3.470969970703125,-0.0374947264790535,-0.004729838576167822,-0.004300108179450035
1746650743499936000,3.48093603515625,-0.01920893043279648,-0.012618388049304485,-0.001732021919451654
1746650743509901000,3.490901123046875,-0.00532134436070919,-0.02054901421070099,-0.005445799790322781
1746650743519867000,3.500866943359375,-0.006897935643792152,-0.036349549889564514,-0.007979265414178371
1746650743529833000,3.5108330078125,-0.006636740639805794,-0.03061860427260399,-0.007931806147098541
1746650743539798000,3.520798095703125,-0.003493678057566285,-0.01709320768713951,-0.004650791175663471
1746650743549763800,3.530763916015625,-0.002332232194021344,0.0319301076233387,0.006627608090639114
1746650743559730200,3.540730224609375,0.003198087913915515,0.03278817608952522,0.005121590569615364
1746650743569695000,3.550695068359375,0.0035999382380396128,0.014120688661932945,0.00328234164044261
1746650743579661000,3.5606611328125,0.015123968943953514,0.04121328890323639,0.012944822199642658
1746650743589626000,3.570626220703125,0.028344083577394485,0.01475987397134304,0.001512123504653573
1746650743599592000,3.580592041015625,0.03362060710787773,-0.013410510495305061,0.000005573267117142677
1746650743609558000,3.59055810546875,0.03799351677298546,-0.011032847687602043,-0.002014129888266325
1746650743619523000,3.600523193359375,0.043507326394319534,0.005520296283066273,0.004008875694125891
1746650743629489000,3.610489013671875,0.05150990188121796,0.003153405152261257,0.00299298157915473
1746650743639455000,3.620455078125,0.043722283095121384,0.0029741739854216576,-0.000938642886467278
1746650743649420000,3.630419921875,0.040023911744356155,-0.0006710211746394634,-0.0026833820156753063
1746650743659385900,3.6403857421875,0.043991222977638245,-0.00750788813456893,-0.0014772363938391209
1746650743669352000,3.65035205078125,0.043807998299598694,-0.02330096624791622,-0.004382212646305561
1746650743679317000,3.66031689453125,0.03883001580834389,-0.022043421864509583,-0.0021653971634805202
1746650743689283000,3.670282958984375,0.027483779937028885,-0.0339784175157547,-0.006176963914185762
1746650743699249200,3.680249267578125,0.0008638883009552956,-0.0811440646648407,-0.02099665440618992
1746650743709214000,3.6902138671875,-0.02555386908352375,-0.10423606634140015,-0.020771846175193787
1746650743719180000,3.700179931640625,-0.06456305831670761,-0.0884094312787056,-0.029142960906028748
1746650743729146000,3.71014599609375,-0.09704674035310745,-0.09296942502260208,-0.02698381245136261
1746650743739111000,3.72011083984375,-0.10783280432224274,-0.05125979706645012,-0.012282629497349262
1746650743749077000,3.730076904296875,-0.09985479712486267,-0.005567467771470547,-0.009542305953800678
1746650743759043000,3.74004296875,-0.07824350893497467,0.02657315880060196,0.01240720134228468
1746650743769007900,3.7500078125,-0.04892464354634285,0.0035395827144384384,-0.003551180474460125
1746650743778974000,3.759973876953125,-0.02529175393283367,0.028244130313396454,0.007481763605028391
1746650743788940000,3.76993994140625,-0.002348456997424364,0.012205730192363262,-0.005839909892529249
1746650743798905000,3.779905029296875,0.0137282470241189,0.04325206205248833,0.01421156246215105
1746650743808871000,3.789870849609375,0.02737225592136383,0.05777352675795555,0.013634997420012951
1746650743818837000,3.7998369140625,0.02586224302649498,0.04853981360793114,0.012327917851507664
1746650743828802000,3.809802001953125,0.012611275538802147,0.04199812561273575,0.008021969348192215
1746650743838768000,3.81976806640625,-0.0010241083800792694,0.024659084156155586,0.004072234965860844
1746650743848734200,3.829734130859375,-0.014432510361075401,-0.0033499347046017647,-0.0015960601158440113
1746650743858699000,3.839698974609375,-0.0256755780428648,-0.0013296608813107014,-0.0022269629407674074
1746650743868665000,3.8496650390625,-0.04102857783436775,-0.019977279007434845,-0.00418853061273694
1746650743878631200,3.859631103515625,-0.057460278272628784,-0.002121584489941597,-0.005573906935751438
1746650743888596000,3.869595947265625,-0.08147896826267242,0.011520232073962688,0.006035391706973314
1746650743898562000,3.87956201171875,-0.09745287150144577,0.06124970316886902,0.021130986511707306
1746650743908527000,3.889527099609375,-0.10882061719894409,0.05107764154672623,0.00919722206890583
1746650743918493000,3.899492919921875,-0.10914392024278641,0.024716073647141457,0.004566517658531666
1746650743928459000,3.909458984375,-0.0683591291308403,0.06114250421524048,0.016879353672266006
1746650743938424000,3.919424072265625,-0.013998148962855339,0.0818597674369812,0.022822730243206024
1746650743948390000,3.929389892578125,0.020222671329975128,0.05439671874046326,0.012788738124072552
1746650743958356200,3.939356201171875,0.030203133821487427,0.010346435941755772,0.006186761427670717
1746650743968321000,3.949321044921875,0.028658032417297363,-0.02341906726360321,-0.005902447737753391
1746650743978287000,3.959287109375,0.03441125899553299,-0.007610809989273548,-0.006005512084811926
1746650743988253200,3.969253173828125,0.048438332974910736,-0.0019749444909393787,0.0007701584254391491
1746650743998218000,3.979218017578125,0.05772930383682251,-0.01959814690053463,-0.0052712224423885345
1746650744008184000,3.98918408203125,0.055741991847753525,0.0018409136682748795,0.0009265795233659446
1746650744018150100,3.999150146484375,0.054232243448495865,0.011280221864581108,0.0008618647116236389
1746650744028115000,4.009114990234375,0.046618759632110596,0.03254091739654541,0.010024862363934517
1746650744038081000,4.0190810546875,0.026204828172922134,0.050127096474170685,0.016261186450719833
1746650744048047000,4.029047119140625,-0.009559969417750835,0.01834503561258316,0.0021252448204904795
1746650744058012000,4.039011962890625,-0.043699029833078384,0.013624049723148346,0.0017084602732211351
1746650744067978200,4.048978271484375,-0.062244731932878494,0.02311907708644867,0.005273970775306225
1746650744077944000,4.058944091796875,-0.06818278133869171,-0.0021029217168688774,-0.0042779892683029175
1746650744087908900,4.068908935546875,-0.05616243928670883,0.032563939690589905,0.007326155435293913
1746650744097875200,4.078875244140625,-0.0454578623175621,0.027705267071723938,0.0066563705913722515
1746650744107841000,4.088841064453125,-0.0380760096013546,0.013007055036723614,0.004275018349289894
1746650744117806000,4.09880615234375,-0.034443724900484085,0.023698315024375916,0.009463389404118061
1746650744127772200,4.108772216796875,-0.023358667269349098,0.0033973297104239464,-0.0008017797954380512
1746650744137738000,4.118738037109375,-0.01398087851703167,-0.0028840014711022377,0.00009464024333283305
1746650744147703000,4.128703125,-0.030670398846268654,-0.009856222197413445,-0.0025760100688785315
1746650744157669000,4.138669189453125,-0.0566580556333065,-0.024672186002135277,-0.0077771637588739395
1746650744167635000,4.148635009765625,-0.06700605899095535,-0.03596191853284836,-0.011587684974074364
1746650744177600300,4.158600341796875,-0.0752677172422409,-0.05162876099348068,-0.019044002518057823
1746650744187566000,4.168566162109375,-0.06753723323345184,-0.0303121879696846,-0.010819245129823685
1746650744197531000,4.17853076171875,-0.05654823035001755,-0.001162293367087841,0.0030251971911638975
1746650744207497200,4.188497314453125,-0.049526844173669815,-0.005201364401727915,-0.0017558499239385128
1746650744217463000,4.198463134765625,-0.03759215772151947,0.024957068264484406,0.007200360763818026
1746650744227427800,4.208427734375,-0.027203965932130814,0.02397063374519348,0.005493008065968752
1746650744237394200,4.218394287109375,-0.01737956330180168,-0.0025219577364623547,-0.002173167187720537
1746650744247360000,4.228360107421875,-0.011035216972231865,-0.018399231135845184,-0.007503797300159931
1746650744257325000,4.238324951171875,-0.010150514543056488,-0.03461095690727234,-0.008506210520863533
1746650744267291100,4.248291015625,-0.008539671078324318,-0.02871156856417656,-0.005675546359270811
1746650744277257000,4.258257080078125,-0.00789438746869564,-0.03708880767226219,-0.010034608654677868
1746650744287222000,4.268221923828125,-0.011697403155267239,-0.037962913513183594,-0.011556446552276611
1746650744297188000,4.27818798828125,-0.01876889355480671,-0.0026989313773810863,0.001968416851013899
1746650744307154000,4.28815380859375,-0.0134191969409585,0.006833663210272789,0.001163208275102079
1746650744317119200,4.298119140625,0.003624767530709505,-0.02643268182873726,-0.006666751578450203
1746650744327085000,4.3080849609375,0.016907038167119026,0.0073602329939603806,0.0031084511429071426
1746650744337051000,4.31805078125,0.040189988911151886,0.05223609507083893,0.015627173706889153
1746650744347016200,4.32801611328125,0.052256323397159576,0.02601858600974083,0.007929776795208454
1746650744356982000,4.33798193359375,0.061330243945121765,0.016249313950538635,0.004084172658622265
1746650744366948000,4.347947998046875,0.07202936708927155,0.05572311580181122,0.017605990171432495
1746650744376913200,4.3579130859375,0.08368682116270065,0.052635449916124344,0.0145944869145751
1746650744386879000,4.36787890625,0.08913605660200119,0.02028219774365425,0.006342603359371424
1746650744396845000,4.377844970703125,0.08688249439001083,-0.025780901312828064,-0.006056275684386492
1746650744406810000,4.38781005859375,0.07801457494497299,-0.059622589498758316,-0.01558598130941391
1746650744416776000,4.39777587890625,0.077939473092556,-0.06052859500050545,-0.017900003120303154
1746650744426742000,4.407741943359375,0.07873661816120148,-0.03663027286529541,-0.011255737394094467
1746650744436707000,4.41770703125,0.07880719751119614,0.012797198258340359,0.00439805630594492
1746650744446673000,4.4276728515625,0.07299947738647461,0.024847248569130898,0.005718460772186518
1746650744456639000,4.437638916015625,0.060049593448638916,0.04400336742401123,0.008022894151508808
1746650744466603800,4.447603759765625,0.04683123901486397,0.06429366767406464,0.01834869757294655
1746650744476569600,4.457569580078125,0.036408692598342896,0.0757678970694542,0.018974008038640022
1746650744486534700,4.46753466796875,0.022566232830286026,0.0630900114774704,0.017522437497973442
1746650744496500700,4.477500732421875,0.0060354601591825485,0.013114732690155506,-0.0021255668252706528
1746650744506466600,4.487466552734375,-0.0031231914181262255,-0.01897888071835041,-0.004157395102083683
1746650744516431600,4.497431640625,0.008365952409803867,-0.024733705446124077,-0.007181148044764996
1746650744526397700,4.507397705078125,0.018048159778118134,-0.03602810949087143,-0.01142216194421053
1746650744536363500,4.517363525390625,0.01917148381471634,-0.03954135254025459,-0.01087914314121008
1746650744546328600,4.52732861328125,0.012482542544603348,-0.0067662582732737064,-0.0020011505112051964
1746650744556294700,4.537294677734375,0.009639618918299675,0.033041875809431076,0.009495449252426624
1746650744566260500,4.547260498046875,0.00901105161756277,0.03827187418937683,0.008574621751904488
1746650744576225800,4.557225830078125,-0.00012572156265377998,0.034503765404224396,0.00906837172806263
1746650744586191600,4.567191650390625,-0.004055400379002094,0.034625452011823654,0.010603927075862885
1746650744596157400,4.577157470703125,-0.010488266125321388,0.004837994463741779,0.0009124180069193244
1746650744606122800,4.587122802734375,-0.014701959677040577,-0.029083076864480972,-0.010273227468132973
1746650744616088600,4.597088623046875,-0.0073271337896585464,-0.02341640368103981,-0.0052867247723042965
1746650744626054700,4.6070546875,-0.001850978471338749,-0.033708229660987854,-0.009977130219340324
1746650744636019700,4.617019775390625,0.0030289979185909033,-0.02791372686624527,-0.008494282141327858
1746650744645985500,4.626985595703125,0.006319558247923851,0.0074124522507190704,0.002702571451663971
1746650744655951600,4.63695166015625,0.0007916348986327648,0.019126631319522858,0.004369976930320263
1746650744665916700,4.646916748046875,-0.004347651265561581,0.03378704562783241,0.011820944957435131
1746650744675882500,4.656882568359375,-0.01460694707930088,0.060774192214012146,0.013941886834800243
1746650744685848800,4.666848876953125,-0.023564079776406288,0.03508630394935608,0.0066441758535802364
1746650744695813600,4.676813720703125,-0.020960306748747826,0.0027941446751356125,0.0007013317663222551
1746650744705779500,4.686779541015625,-0.022473126649856567,0.008270236663520336,0.005244002677500248
1746650744715745800,4.696745849609375,-0.021787095814943314,-0.006221621297299862,-0.00016967111150734127
1746650744725710600,4.706710693359375,-0.019790463149547577,-0.009759977459907532,0.0010235975496470928
1746650744735676700,4.7166767578125,-0.026886988431215286,-0.007353012450039387,-0.00027655757730826735
1746650744745642800,4.726642822265625,-0.03538326919078827,0.014168786816298962,0.002979194512590766
1746650744755607600,4.736607666015625,-0.03780674561858177,0.016202911734580994,0.00505566131323576
1746650744765573600,4.74657373046875,-0.040914081037044525,0.00291439238935709,-0.0015044007450342178
1746650744775539700,4.756539794921875,-0.03731188923120499,-0.00012986641377210617,-0.0003187613910995424
1746650744785504500,4.76650439453125,-0.03788958862423897,0.006792302243411541,0.0008714988362044096
1746650744795470600,4.776470703125,-0.044846031814813614,0.0015807626768946648,0.0019862980116158724
1746650744805436700,4.786436767578125,-0.04728421941399574,-0.0011747241951525211,-0.0018797570373862982
1746650744815401500,4.7964013671875,-0.047951605170965195,-0.009134380146861076,0.00008592201629653573
1746650744825367800,4.806367919921875,-0.039624620229005814,-0.01116479467600584,0.001926142955198884
1746650744835333600,4.816333740234375,-0.037879981100559235,-0.009133068844676018,-0.0030403861310333014
1746650744845298700,4.826298583984375,-0.03811212629079819,0.0004156753420829773,0.0038931304588913918
1746650744855264800,4.8362646484375,-0.03493417799472809,0.00035921670496463776,0.0014374294551089406
1746650744865229600,4.8462294921875,-0.03769030421972275,0.005968838930130005,0.0006527918158099055
1746650744875195600,4.856195556640625,-0.03158926963806152,-0.006207133177667856,-0.004259142559021711
1746650744885161700,4.86616162109375,-0.014860888943076134,-0.004821490496397018,-0.0004787852813024074
1746650744895126500,4.87612646484375,-0.019065754488110542,-0.004541325848549604,-0.002778424881398678
1746650744905092600,4.886092529296875,-0.01615053601562977,-0.010341857559978962,-0.006978379096835852
1746650744915058700,4.89605859375,-0.015343597158789635,-0.019120167940855026,-0.0062380204908549786
1746650744925023500,4.9060234375,-0.016367828473448753,-0.017172805964946747,-0.005959915928542614
1746650744934989600,4.915989501953125,-0.01772337779402733,-0.016250021755695343,-0.004504764918237925
1746650744944955600,4.92595556640625,-0.024665910750627518,0.004578748717904091,0.002944003092125058
1746650744954920700,4.935920654296875,-0.02016357146203518,0.0475536473095417,0.018420962616801262
1746650744964886800,4.94588671875,-0.01126023381948471,0.016470395028591156,0.0012290443992242217
1746650744974852600,4.9558525390625,-0.0071054366417229176,0.005003888159990311,0.003047983394935727
1746650744984817700,4.965817626953125,-0.0008548339828848839,0.010180233977735043,-0.0008016626816242933
1746650744994783700,4.97578369140625,-0.0029949501622468233,-0.004519082605838776,-0.0005430697347037494
1746650745004749600,4.98574951171875,-0.017348095774650574,-0.007801553700119257,-0.0004430375120136887
1746650745014714600,4.995714599609375,-0.03326554223895073,-0.012762757018208504,-0.007773121818900108
1746650745024680700,5.0056806640625,-0.054523203521966934,-0.025831010192632675,-0.009370094165205956
1746650745034646800,5.015646728515625,-0.06619717180728912,0.002798238769173622,-0.000122799479868263
1746650745044611600,5.025611572265625,-0.08104646950960159,-0.015119100920855999,-0.0041754343546926975
1746650745054577700,5.03557763671875,-0.08763645589351654,-0.0001441463828086853,-0.004488089587539434
1746650745064543700,5.045543701171875,-0.07620315998792648,-0.01322161965072155,-0.0021362751722335815
1746650745074508500,5.055508544921875,-0.06879131495952606,-0.010198398493230343,-0.003144015558063984
1746650745084474600,5.065474609375,-0.06588111817836761,-0.00200762040913105,-0.0015331159811466932
1746650745094440700,5.075440673828125,-0.08092238754034042,0.001705092377960682,0.0028182226233184338
1746650745104405800,5.08540576171875,-0.09463971108198166,-0.007925184443593025,-0.007515664678066969
1746650745114371600,5.09537158203125,-0.09893325716257095,-0.003342417534440756,-0.004470872227102518
1746650745124337700,5.105337646484375,-0.0913151428103447,0.0015814006328582764,-0.002261364832520485
1746650745134302700,5.115302734375,-0.08104333281517029,-0.014760288409888744,-0.00642841262742877
1746650745144268800,5.125268798828125,-0.07067345827817917,0.0011104689911007881,0.0020398511551320553
1746650745154234600,5.135234619140625,-0.06191724166274071,-0.029391512274742126,-0.009683383628726006
1746650745164199700,5.14519970703125,-0.04580661654472351,-0.0044259317219257355,-0.000015834113582968712
1746650745174165800,5.155165771484375,-0.03335793316364288,-0.006591347977519035,-0.0038145671132951975
1746650745184130600,5.165130615234375,-0.019573455676436424,0.006002348847687244,-0.0009259387152269483
1746650745194096600,5.1750966796875,-0.02178307995200157,0.0019314400851726532,-0.0007760027656331658
1746650745204062700,5.185062744140625,-0.020779436454176903,-0.0033565741032361984,-0.0026330347172915936
1746650745214027500,5.195027587890625,-0.021387968212366104,-0.009240295737981796,-0.00491243414580822
1746650745223993600,5.20499365234375,-0.012647965922951698,-0.0024043708108365536,-0.0022925795055925846
1746650745233959700,5.214959716796875,-0.010573363862931728,-0.000418185256421566,-0.005326984915882349
1746650745243924700,5.2249248046875,-0.007543199695646763,-0.004732441157102585,-0.0023596587125211954
1746650745253890800,5.234890869140625,-0.0065117571502923965,-0.012062525376677513,-0.0035050841979682446
1746650745263856600,5.244856689453125,0.0007993994513526559,-0.005245697684586048,-0.0034643705002963543
1746650745273821700,5.25482177734375,-0.0013862568885087967,-0.011589081026613712,0.0013913712464272976
1746650745283787800,5.264787841796875,-0.007789582014083862,-0.005690505728125572,-0.0007027424871921539
1746650745293753600,5.274753662109375,-0.016415826976299286,-0.009394963271915913,0.0001430775155313313
1746650745303718700,5.28471875,-0.020353659987449646,-0.004882210865616798,-0.0022295473609119654
1746650745313684700,5.294684814453125,-0.019848724827170372,0.008271409198641777,0.0030339243821799755
1746650745323650600,5.304650634765625,-0.01771061308681965,0.005289562977850437,-0.002138845156878233
1746650745333615600,5.31461572265625,-0.01365701761096716,-0.002447186503559351,-0.0018032868392765522
1746650745343581700,5.324581787109375,-0.005904720164835453,-0.006747349631041288,-0.003946589305996895
1746650745353547500,5.334547607421875,0.005794812925159931,-0.009825165383517742,-0.0003992590354755521
1746650745363512800,5.344512939453125,0.014066305011510849,-0.008203629404306412,-0.0035495448391884565
1746650745373478700,5.354478759765625,0.01805412396788597,-0.000662622507661581,-0.0003425662871450186
1746650745383444500,5.364444580078125,0.0238482803106308,-0.005153224337846041,-0.002457359340041876
1746650745393409800,5.374409912109375,0.020682847127318382,0.004408589564263821,0.005051956046372652
1746650745403375600,5.384375732421875,0.011974739842116833,-0.003262687474489212,-0.0014544592704623938
1746650745413341700,5.394341796875,0.006413260940462351,0.007518588565289974,0.0024912802036851645
1746650745423306800,5.404306640625,-0.002647346118465066,0.0094525795429945,0.00009732675971463323
1746650745433272600,5.4142724609375,-0.005959253758192062,0.001094515435397625,-0.0011162757873535156
1746650745443238700,5.42423876953125,-0.007882874459028244,0.001393788494169712,0.0041117435321211815
1746650745453203700,5.43420361328125,-0.01633441634476185,-0.0006938637234270573,0.0007055604946799576
1746650745463169500,5.44416943359375,-0.024310870096087456,0.00003978423774242401,-0.003440557047724724
1746650745473136000,5.45413623046875,-0.03113069199025631,0.013461848720908165,0.00341921322979033
1746650745483101200,5.46410107421875,-0.04328843206167221,0.00828608963638544,0.002543454524129629
1746650745493067300,5.4740673828125,-0.059857822954654694,0.008181693963706493,0.0006821714341640472
1746650745503033000,5.484033203125,-0.06961195915937424,-0.0025917142629623413,-0.0006870627985335886
1746650745512998100,5.493998046875,-0.06259585916996002,-0.0026985066942870617,0.003085571341216564
1746650745522964200,5.503964111328125,-0.047322385013103485,0.0034472085535526276,0.0019406082574278116
1746650745532930000,5.513929931640625,-0.03104887157678604,0.004133771173655987,0.00628582201898098
1746650745542895000,5.52389501953125,-0.012992845848202705,-0.0010959599167108536,0.002108294051140547
1746650745552861200,5.533861083984375,-0.0013676148373633623,0.006768355146050453,0.003439874853938818
1746650745562827000,5.543826904296875,-0.0002605179324746132,0.0019451649859547615,0.000043349049519747496
1746650745572792000,5.5537919921875,-0.0005678466986864805,0.0025286637246608734,-0.00036038615508005023
1746650745582758100,5.563758056640625,-0.0013340588193386793,0.002188516780734062,0.0007213199278339744
1746650745592724000,5.573723876953125,-0.004256079439073801,0.002178662456572056,-0.0005703132483176887
1746650745602689300,5.583689208984375,-0.0077195605263113976,0.0014970367774367332,-0.0009879999561235309
1746650745612655000,5.593655029296875,-0.008463380858302116,-0.001615133136510849,0.0009856687393039465
1746650745622621200,5.60362109375,-0.013859560713171959,0.002789490856230259,-0.0010833179112523794
1746650745632586200,5.613586181640625,-0.016228707507252693,-0.0029919659718871117,0.00011057726806029677
1746650745642552000,5.623552001953125,-0.022204454988241196,-0.0050424979999661446,-0.0020038927905261517
1746650745652517000,5.63351708984375,-0.031820062547922134,-0.0075317551381886005,-0.0011812422890216112
1746650745662483200,5.643483154296875,-0.03576567769050598,-0.009788681752979755,-0.0016841969918459654
1746650745672449000,5.653448974609375,-0.029243063181638718,-0.006036287639290094,0.0006234321626834571
1746650745682414000,5.6634140625,-0.02829485759139061,0.0032601123675704002,-0.003068162128329277
1746650745692380200,5.673380126953125,-0.027782199904322624,0.00942639447748661,0.0008248467347584665
1746650745702346000,5.683345947265625,-0.03691737353801727,0.006578677333891392,-0.0008683542255312204
1746650745712311300,5.693311279296875,-0.048600126057863235,-0.0014049471355974674,0.0003436504048295319
1746650745722277000,5.703277099609375,-0.0570918433368206,-0.0020248088985681534,-0.0011710524559020996
1746650745732243000,5.713242919921875,-0.04027478024363518,0.0022351834923028946,0.0008159320568665862
1746650745742208300,5.723208251953125,-0.019625654444098473,0.002637178637087345,-0.0004279275890439749
1746650745752174000,5.733174072265625,-0.006143932230770588,-0.0033781034871935844,-0.0016849396051838994
1746650745762140200,5.74314013671875,-0.0032588893081992865,0.0005358001217246056,-0.0035463490057736635
1746650745772105200,5.753105224609375,-0.0014090575277805328,-0.004782532807439566,-0.0025641752872616053
1746650745782071000,5.763071044921875,0.0004728959174826741,-0.0011710613034665585,-0.005190365016460419
1746650745792037400,5.773037353515625,0.0012436145916581154,0.004038614220917225,0.002080331090837717
1746650745802002200,5.783002197265625,-0.0018482750747352839,0.008033747784793377,-0.000001093023456633091
1746650745811968000,5.792968017578125,-0.0010285540483891964,0.006807894445955753,-0.0005057620583102107
1746650745821934300,5.802934326171875,0.003520904341712594,-0.001102556474506855,0.0015528288204222918
1746650745831899100,5.812899169921875,0.00011898251250386238,-0.003939355723559856,-0.004098665434867144
1746650745841865000,5.822864990234375,-0.000868599396198988,-0.012880366295576096,-0.0020615900866687298
1746650745851831300,5.832831298828125,0.00040545687079429626,-0.018667947500944138,-0.005579093471169472
1746650745861796000,5.842796142578125,0.0008467216975986958,-0.017666127532720566,-0.00641619460657239
1746650745871762000,5.852761962890625,-0.00008698250167071819,-0.015539061278104782,-0.004493658896535635
1746650745881728300,5.862728271484375,0.0011450373567640781,0.0004882318899035454,0.001222157385200262
1746650745891693000,5.872693115234375,0.00008376757614314556,0.009627400897443295,0.004002231173217297
1746650745901659100,5.8826591796875,0.0003053010441362858,0.007070643827319145,0.002652934053912759
1746650745911625200,5.892625244140625,0.0004877275787293911,0.004536646418273449,-0.00023979158140718937
1746650745921590000,5.902590087890625,-0.00023046554997563362,-0.01464485190808773,-0.005051684565842152
1746650745931556400,5.912556396484375,-0.0007066389080137014,-0.008939562365412712,-0.001955227227881551
1746650745941522200,5.922522216796875,0.002466189907863736,-0.014714812859892845,-0.004797258879989386
1746650745951487000,5.932487060546875,-0.000544247217476368,-0.028177358210086823,-0.008406108245253563
1746650745961453300,5.942453369140625,-0.0006386463064700365,-0.021050574257969856,-0.004447170067578554
1746650745971419100,5.952419189453125,0.00002155127003788948,-0.020675335079431534,-0.002676700707525015
1746650745981384000,5.962384033203125,0.0001304133329540491,-0.013856496661901474,-0.0060218037106096745
1746650745991350300,5.972350341796875,0.0036391280591487885,0.007759849540889263,0.003987687174230814
1746650746001316000,5.982316162109375,0.025713354349136353,0.02540513500571251,0.010479118674993515
1746650746011281200,5.99228125,0.05215934291481972,0.014742904342710972,0.007931805215775967
1746650746021247200,6.002247314453125,0.07825674116611481,0.016154978424310684,0.0035333605483174324
1746650746031213000,6.012213134765625,0.1016792431473732,0.0031925728544592857,0.002262233756482601
1746650746041178000,6.02217822265625,0.10777749866247177,0.0057493774220347404,0.0019061625935137272
1746650746051144200,6.032144287109375,0.0786406546831131,0.013462689705193043,0.0031059165485203266
1746650746061110300,6.0421103515625,0.02918837033212185,0.008270992897450924,0.001052177743986249
1746650746071075300,6.052075439453125,-0.015798013657331467,0.0013813944533467293,-0.0020719764288514853
1746650746081041200,6.062041259765625,-0.05187569186091423,0.0016639148816466331,-0.00223953602835536
1746650746091007200,6.07200732421875,-0.05980818346142769,-0.000045035965740680695,-0.0009766649454832077
1746650746100972300,6.08197216796875,-0.07799706608057022,-0.00438738102093339,-0.002653727540746331
1746650746110938000,6.091938232421875,-0.08617696166038513,0.01770247519016266,0.0030161424074321985
1746650746120904200,6.101904296875,-0.06847555935382843,0.007453791797161102,-0.00018551968969404697
1746650746130869200,6.111869140625,-0.041197072714567184,0.0028462568297982216,0.0002296671154908836
1746650746140835000,6.1218349609375,-0.019443389028310776,-0.0013527278788387775,0.00003820908023044467
1746650746150801200,6.13180126953125,-0.017375444993376732,-0.006684908643364906,-0.00040494094719178975
1746650746160766200,6.14176611328125,-0.0217784084379673,-0.019780084490776062,-0.004371083341538906
1746650746170732300,6.151732177734375,-0.02448923885822296,-0.008566045202314854,-0.002026436384767294
1746650746180698000,6.161697998046875,-0.029572047293186188,0.005437963642179966,-0.0010434170253574848
1746650746190663200,6.1716630859375,-0.03596203401684761,0.005334898829460144,0.0015819271793588996
1746650746200629200,6.181629150390625,-0.04151628166437149,0.0021677250042557716,0.001227333676069975
1746650746210595000,6.191594970703125,-0.04442871734499931,-0.0000056801363825798035,-0.0006336831720545888
1746650746220560100,6.20156005859375,-0.03572044521570206,-0.006176759023219347,-0.00044383647036738694
1746650746230526200,6.211526123046875,-0.016446352005004883,-0.0013881293125450611,-0.0018257508054375648
1746650746240491300,6.2214912109375,0.006964906118810177,0.0007797703146934509,0.0017957453383132815
1746650746250457000,6.23145703125,0.011687489226460457,-0.0029569105245172977,-0.00011054539936594665
1746650746260423200,6.241423095703125,0.009112909436225891,-0.013307062909007072,-0.0022901229094713926
1746650746270389000,6.251388916015625,-0.01021391712129116,-0.0071482365019619465,-0.0018246023682877421
1746650746280354300,6.261354248046875,-0.011595136485993862,-0.023366399109363556,-0.004588247276842594
1746650746290320100,6.271320068359375,-0.012277438305318356,-0.025160837918519974,-0.006187742576003075
1746650746300285200,6.28128515625,0.0009909626096487045,-0.027282308787107468,-0.010499666444957256
1746650746310251300,6.291251220703125,0.030283071100711823,-0.023293161764740944,-0.010499133728444576
1746650746320217000,6.301217041015625,0.05195358395576477,-0.026636186987161636,-0.005446271505206823
1746650746330182100,6.31118212890625,0.07389376312494278,-0.03756233677268028,-0.012320156209170818
1746650746340148200,6.321148193359375,0.08983737975358963,-0.0353943407535553,-0.012314620427787304
1746650746350114000,6.331114013671875,0.0947895273566246,-0.009239434264600277,-0.007145957555621862
1746650746360079000,6.3410791015625,0.09077524393796921,-0.014751413837075233,-0.004896129947155714
1746650746370045200,6.351045166015625,0.07930634170770645,0.004497116431593895,0.0032936232164502144
1746650746380011000,6.361010986328125,0.05115063861012459,0.014360780827701092,0.004461753182113171
1746650746389976300,6.370976318359375,0.00994860753417015,0.024520207196474075,0.00543540483340621
1746650746399942100,6.380942138671875,-0.04259217903017998,0.0009075766429305077,-0.0014957149978727102
1746650746409908000,6.390907958984375,-0.09381542354822159,0.008593459613621235,-0.0012168820248916745
1746650746419873300,6.400873291015625,-0.14536839723587036,0.010510813444852829,0.002494396176189184
1746650746429839000,6.410839111328125,-0.14709733426570892,0.006671068258583546,0.0008839825168251991
1746650746439805200,6.42080517578125,-0.13620537519454956,0.016046419739723206,0.004936734214425087
1746650746449770200,6.430770263671875,-0.11736829578876495,0.03888222575187683,0.010616458021104336
1746650746459736000,6.440736083984375,-0.09305527806282043,0.06977077573537827,0.017567435279488564
1746650746469702000,6.450701904296875,-0.07142987102270126,0.07468511164188385,0.020150966942310333
1746650746479666700,6.460666748046875,-0.04512210190296173,0.044387124478816986,0.013375123031437397
1746650746489632500,6.470632568359375,-0.023230649530887604,0.004347031936049461,0.002646578708663583
1746650746499598800,6.480598876953125,-0.008623745292425156,0.010167899541556835,0.004517413210123777
1746650746509563600,6.490563720703125,0.0028563430532813072,0.0002686642110347748,0.0003559575416147709
1746650746519529500,6.500529541015625,0.011235550977289677,-0.0016522281803190708,-0.0007710093632340431
1746650746529495800,6.510495849609375,0.015903007239103317,0.002181392163038254,-0.0010719465790316463
1746650746539460600,6.520460693359375,0.003217100165784359,0.010436308570206165,0.0027535913977771997
1746650746549426700,6.5304267578125,-0.002863429021090269,-0.008801834657788277,-0.0027953709941357374
1746650746559392800,6.540392822265625,-0.005356702022254467,-0.014299195259809494,-0.003961942158639431
1746650746569357600,6.550357666015625,0.00363546097651124,-0.025678882375359535,-0.0054455893114209175
1746650746579323600,6.56032373046875,0.014410898089408875,-0.03762522712349892,-0.008770438842475414
1746650746589289700,6.570289794921875,0.013575464487075806,-0.03819434344768524,-0.009636498987674713
1746650746599254500,6.580254638671875,0.012861287221312523,-0.039475079625844955,-0.011049329303205013
1746650746609220900,6.590220947265625,0.006578890606760979,-0.029308196157217026,-0.007566181011497974
1746650746619186700,6.600186767578125,0.04369741305708885,0.00523036066442728,0.0061685629189014435
1746650746629151500,6.6101513671875,0.08915038406848907,0.01076014805585146,0.002376221353188157
1746650746639117800,6.620117919921875,0.12519963085651398,0.022166691720485687,0.004684602841734886
1746650746649083600,6.630083740234375,0.15866971015930176,0.021774940192699432,0.007772271521389484
1746650746659048700,6.640048583984375,0.1867491751909256,0.018683502450585365,0.0016567715210840106
1746650746669014800,6.650014892578125,0.2234555184841156,0.013185672461986542,0.0034671886824071407
1746650746678980600,6.659980712890625,0.24198023974895477,0.015808742493391037,0.005022614728659391
1746650746688945700,6.669945556640625,0.22710968554019928,-0.0028416416607797146,0.0007208105525933206
1746650746698911700,6.679911865234375,0.17565950751304626,-0.0075281281024217606,-0.0013847877271473408
1746650746708877800,6.6898779296875,0.12331853061914444,0.0025628553703427315,0.0007137831998988986
1746650746718842600,6.699842529296875,0.053469352424144745,-0.014276228845119476,-0.004934155847877264
1746650746728808700,6.70980859375,0.013692909851670265,-0.004002286121249199,-0.0009671109728515148
1746650746738774800,6.71977490234375,0.0009165174560621381,-0.018068470060825348,-0.00422727270051837
1746650746748739800,6.72973974609375,0.016713323071599007,0.018783286213874817,0.0025704458821564913
1746650746758705700,6.73970556640625,0.03714894875884056,0.018727997317910194,0.006385274231433868
1746650746768671700,6.749671630859375,0.04749133437871933,0.014272795990109444,0.006161568686366081
1746650746778636800,6.75963671875,0.05302097648382187,-0.006987648084759712,-0.00441932026296854
1746650746788602600,6.7696025390625,0.05638588219881058,0.02877487614750862,0.00432144058868289
1746650746798568700,6.779568603515625,0.04931053891777992,0.025940638035535812,0.008724860846996307
1746650746808533800,6.78953369140625,0.0575903058052063,0.03215964883565903,0.00907320249825716
1746650746818499800,6.799499755859375,0.0665983185172081,0.02175138145685196,0.0025810985825955868
1746650746828465700,6.809465576171875,0.05627937614917755,0.02234979346394539,0.007177448365837336
1746650746838430700,6.8194306640625,0.031368453055620193,0.019238218665122986,0.0027665244415402412
1746650746848396800,6.829396728515625,0.003887827042490244,0.019040610641241074,0.004415553528815508
1746650746858362600,6.839362548828125,-0.03465739265084267,0.00798861589282751,-0.000008386210538446903
1746650746868327700,6.84932763671875,-0.06999701261520386,0.009116197936236858,0.000028365408070385456
1746650746878293800,6.859293701171875,-0.06414736807346344,0.001308877021074295,0.0038324613124132156
1746650746888259600,6.869259521484375,-0.029414959251880646,0.0030167624354362488,0.00004464713856577873
1746650746898224600,6.879224609375,-0.004343777429312468,0.006871175952255726,-0.0009010180365294218
1746650746908190700,6.889190673828125,0.016905583441257477,0.0008103540167212486,-0.0019055624725297093
1746650746918156500,6.899156494140625,0.0016893459251150489,0.0002921000123023987,-0.00013486304669640958
1746650746928121900,6.909121826171875,-0.016816426068544388,0.0013554999604821205,0.0020073838531970978
1746650746938087700,6.919087646484375,-0.030272826552391052,0.006193459965288639,0.0004758698050864041
1746650746948053500,6.929053466796875,-0.040994979441165924,0.004253880120813847,-0.0004823355993721634
1746650746958018800,6.939018798828125,-0.03895172104239464,0.0052019450813531876,0.0004281758447177708
1746650746967984600,6.948984619140625,-0.020446745678782463,0.0009526051580905914,-0.0012871662620455027
1746650746977950700,6.95895068359375,0.008390760980546474,0.0002354159951210022,-0.00034360826248303056
1746650746987915800,6.968915771484375,0.034382414072752,0.002370738424360752,-0.0017300499603152275
1746650746997881600,6.978881591796875,0.06958702206611633,0.0011785030364990234,-0.002536651212722063
1746650747007846700,6.9888466796875,0.06391289830207825,-0.0010566874407231808,0.0006620712811127305
1746650747017812700,6.998812744140625,0.024465642869472504,-0.002496863715350628,0.0009716005297377706
1746650747027778600,7.008778564453125,-0.0042134057730436325,-0.0026159067638218403,0.0015436474932357669
1746650747037743900,7.018743896484375,-0.011099418625235558,-0.00640308391302824,-0.0006384303560480475
1746650747047709700,7.028709716796875,-0.028299976140260696,-0.011385591700673103,-0.0035681738518178463
1746650747057675500,7.038675537109375,-0.03446851298213005,-0.00569638516753912,-0.0033073006197810173
1746650747067640800,7.048640869140625,-0.04293017461895943,-0.00503672007471323,-0.0012662537628784776
1746650747077606700,7.058606689453125,-0.04839082434773445,-0.000063309445977211,-0.00014937054947949946
1746650747087572700,7.06857275390625,-0.021381311118602753,0.002105569466948509,-0.0009432588703930378
1746650747097537800,7.078537841796875,0.021228037774562836,0.0032286662608385086,-0.0012092620600014925
1746650747107503600,7.088503662109375,0.08239978551864624,0.010663678869605064,0.0011122154537588358
1746650747117469700,7.0984697265625,0.14765603840351105,0.0075949812307953835,0.003855873830616474
1746650747127434800,7.108434814453125,0.17753830552101135,0.0007221614941954613,0.00042146124178543687
1746650747137400600,7.118400634765625,0.1418428272008896,-0.002910842653363943,-0.0022160769440233707
1746650747147366700,7.12836669921875,0.0910470187664032,0.00596893485635519,0.0015533613041043282
1746650747157331700,7.138331787109375,0.05037844553589821,0.006786854937672615,0.0012013241648674011
1746650747167297500,7.148297607421875,0.01033888291567564,0.002792113460600376,-0.00039603980258107185
1746650747177263600,7.158263671875,0.0025616949424147606,-0.002970845904201269,-0.0015328030567616224
1746650747187228700,7.168228759765625,0.003577957395464182,-0.0036984216421842575,-0.003040152136236429
1746650747197194500,7.178194580078125,0.03277995064854622,0.0004281066358089447,-0.0014553149230778217
1746650747207160800,7.188160888671875,0.06141212582588196,0.005183447152376175,0.0006110317772254348
1746650747217125600,7.198125732421875,0.06339173763990402,-0.0014246748760342598,0.00006585940718650818
1746650747227091700,7.208091796875,0.04905141144990921,0.011452507227659225,0.001936996472068131
1746650747237057800,7.218057861328125,0.03292832896113396,0.0052253855392336845,0.0014093206264078617
1746650747247022600,7.228022705078125,0.019448740407824516,0.003314035013318062,0.0006274165352806449
1746650747256988700,7.23798876953125,0.022284021601080894,0.006814468652009964,0.0015943506732583046
1746650747266954800,7.247954833984375,0.04546817019581795,-0.0024408153258264065,-0.0006304539856500924
1746650747276919600,7.25791943359375,0.07743727415800095,0.0032979706302285194,0.00004995026392862201
1746650747286885600,7.2678857421875,0.08938980847597122,0.015954643487930298,0.0064276885241270065
1746650747296851700,7.277851806640625,0.07920056581497192,0.002988038584589958,0.0007325519109144807
1746650747306816500,7.28781640625,0.054601214826107025,-0.0013377340510487556,0.0005860780365765095
1746650747316782600,7.297782470703125,0.039571523666381836,0.0022062379866838455,-0.0009097402216866612
1746650747326748700,7.307748779296875,0.015022769570350647,0.0019585639238357544,0.0013872361741960049
1746650747336713700,7.317713623046875,0.003025474725291133,0.0012983037158846855,0.0002207389334216714
1746650747346679800,7.3276796875,-0.00716963829472661,0.0009414404630661011,0.0013864045031368732
1746650747356645600,7.337645751953125,-0.020581131801009178,0.0003632940351963043,0.0015662272926419973
1746650747366610700,7.347610595703125,-0.025539670139551163,0.002239757217466831,-0.001297203591093421
1746650747376576800,7.35757666015625,0.0002772181760519743,0.0032430551946163177,0.001201733248308301
1746650747386542800,7.36754296875,0.020337477326393127,0.005819130688905716,0.0011005331762135029
1746650747396507600,7.377507568359375,0.011422994546592236,0.0006012124940752983,0.0006786392186768353
1746650747406473700,7.3874736328125,0.022982977330684662,0.004612998105585575,0.0028318047989159822
1746650747416439800,7.397439697265625,0.024169929325580597,-0.0020859800279140472,0.0009941908065229654
1746650747426404600,7.407404541015625,0.047634243965148926,0.00941781047731638,0.0031638680957257748
1746650747436370700,7.41737060546875,0.04654599353671074,0.006975979544222355,0.002496367320418358
1746650747446336800,7.427336669921875,0.049415282905101776,0.004131457768380642,0.0007519968785345554
1746650747456301600,7.437301513671875,0.028414679691195488,0.00788311567157507,0.003497248748317361
1746650747466267600,7.447267578125,-0.01639673300087452,0.007684974931180477,0.0015707183629274368
1746650747476233500,7.4572333984375,-0.06722938269376755,-0.010143863968551159,0.0006747797015123069
1746650747486198500,7.467198486328125,-0.08711574226617813,-0.010310578159987926,-0.0007151240715757012
1746650747496164400,7.477164306640625,-0.08180185407400131,-0.009256779216229916,-0.0011931529734283686
1746650747506130400,7.48713037109375,-0.07247120141983032,-0.0077070859260857105,-0.000593409058637917
1746650747516095500,7.497095458984375,-0.07235042005777359,-0.013193302787840366,0.00020275736460462213
1746650747526061300,7.507061279296875,-0.0672997310757637,-0.015138208866119385,-0.002360268961638212
1746650747536027400,7.51702734375,-0.04138103127479553,-0.008238161914050579,-0.004005768336355686
1746650747545992400,7.526992431640625,-0.030218126252293587,-0.008108465932309628,-0.002175644040107727
1746650747555958500,7.53695849609375,-0.03616432845592499,0.0013625752180814743,0.0010353740071877837
1746650747565924400,7.54692431640625,-0.04272875562310219,0.00913128349930048,-0.0011987518519163132
1746650747575889400,7.556889404296875,-0.06161712110042572,-0.009359801188111305,-0.004034971818327904
1746650747585855500,7.56685546875,-0.08532245457172394,0.00213626679033041,-0.0006756606162525713
1746650747595821300,7.5768212890625,-0.11099980771541595,-0.009995379485189915,-0.0026071472093462944
1746650747605786400,7.586786376953125,-0.12269774824380875,-0.0036285598762333393,-0.0008199000731110573
1746650747615752400,7.59675244140625,-0.09876518696546555,-0.010778699070215225,-0.005924739874899387
1746650747625718300,7.60671826171875,-0.07584895193576813,0.0014172466471791267,-0.0032344148494303226
1746650747635683300,7.616683349609375,-0.07224971055984497,0.0018648691475391388,-0.0022040719632059336
1746650747645649400,7.6266494140625,-0.10054899007081985,-0.014270158484578133,-0.0029992919880896807
1746650747655615200,7.636615234375,-0.1315837949514389,-0.0037355138920247555,0.0001163171255029738
1746650747665580500,7.64658056640625,-0.13743822276592255,0.0002483092248439789,-0.0027460483834147453
1746650747675546400,7.65654638671875,-0.12570522725582123,0.006957562640309334,0.0006592533318325877
1746650747685512200,7.66651220703125,-0.09924034029245377,0.00016623549163341522,-0.0009596822783350945
1746650747695477500,7.6764775390625,-0.09856299310922623,0.008601328358054161,0.001953133847564459
1746650747705443300,7.686443359375,-0.08840915560722351,0.005411925725638866,-0.0023079239763319492
1746650747715409400,7.696409423828125,-0.05972357839345932,0.00004260800778865814,-0.000679285149089992
1746650747725374500,7.70637451171875,-0.05988389998674393,0.0012106699869036674,-0.0006095102871768177
1746650747735340300,7.71634033203125,-0.08972910046577454,-0.005526719614863396,-0.0017046949360519648
1746650747745306400,7.726306396484375,-0.0687364712357521,-0.012861065566539764,-0.0032962001860141754
1746650747755271400,7.736271484375,-0.0605124793946743,-0.01186034083366394,-0.0048808627761900425
1746650747765237200,7.7462373046875,-0.06376206874847412,-0.007748686242848635,-0.0033783074468374252
1746650747775203600,7.75620361328125,-0.08866346627473831,-0.011812817305326462,-0.002101493999361992
1746650747785168400,7.76616845703125,-0.10520143061876297,-0.0052641043439507484,-0.002590450458228588
1746650747795134200,7.77613427734375,-0.11178708076477051,0.005761909298598766,0.0011539652477949858
1746650747805100500,7.7861005859375,-0.10116612911224365,0.002292875200510025,-0.004786482080817223
1746650747815065300,7.7960654296875,-0.10629051923751831,0.006535723805427551,0.002929101465269923
1746650747825031400,7.806031494140625,-0.0652964860200882,0.008719250559806824,0.0040513575077056885
1746650747834997500,7.81599755859375,-0.019815612584352493,0.00818831566721201,0.0029063252732157707
1746650747844962300,7.82596240234375,0.00842454843223095,0.006372305564582348,0.0009699408547021449
1746650747854928400,7.835928466796875,0.020259611308574677,-0.007789664436131716,-0.0023154383525252342
1746650747864894500,7.84589453125,-0.0003780224360525608,0.008551492355763912,0.0006143050850369036
1746650747874860300,7.8558603515625,-0.053867489099502563,-0.0010501625947654247,-0.0003286043938715011
1746650747884825300,7.865825439453125,-0.1182725727558136,-0.001296505331993103,0.0007401221664622426
1746650747894791400,7.87579150390625,-0.1423896700143814,-0.010419812053442001,-0.003987092990428209
1746650747904757500,7.885757568359375,-0.14608506858348846,0.00024082232266664505,-0.002165757352486253
1746650747914722600,7.89572265625,-0.11010480672121048,0.0038245944306254387,-0.00065419333986938
1746650747924688400,7.9056884765625,-0.07547146081924438,-0.004572086036205292,-0.001130100223235786
1746650747934654500,7.915654541015625,-0.06316786259412766,-0.003620091825723648,-0.0014220752054825425
1746650747944619500,7.92561962890625,-0.06838872283697128,-0.0066550299525260925,-0.0013475066516548395
1746650747954585300,7.93558544921875,-0.07640885561704636,-0.004893413279205561,-0.0020096381194889545
1746650747964551400,7.945551513671875,-0.0860966295003891,0.0011271946132183075,-0.0005086804158054292
1746650747974516500,7.9555166015625,-0.08996491879224777,-0.005272497422993183,-0.0017817758489400148
1746650747984482300,7.965482421875,-0.05860140174627304,0.0019641099497675896,-0.0009543315973132849
1746650747994448400,7.975448486328125,0.010778352618217468,0.013998577371239662,0.0046411543153226376
1746650748004413400,7.985413330078125,0.07586920261383057,0.018690001219511032,0.0014245884958654642
1746650748014379500,7.995379638671875,0.1111941710114479,0.01205420307815075,0.0032754854764789343
1746650748024345300,8.005345458984374,0.12521278858184814,0.013649171218276024,0.006318413186818361
1746650748034310400,8.015310302734376,0.09419724345207214,0.0009602298960089684,0.0006796562229283154
1746650748044276500,8.0252763671875,0.08286202698945999,-0.005917117465287447,-0.0022796483244746923
1746650748054242300,8.0352421875,0.06787855178117752,0.009678605012595654,0.000464704935438931
1746650748064207400,8.045207275390625,0.055995259433984756,0.01368799339979887,0.001841825433075428
1746650748074173400,8.05517333984375,0.056126225739717484,0.0089689576998353,-0.00036291289143264294
1746650748084139300,8.06513916015625,0.03852752596139908,0.013018826954066753,0.003587886691093445
1746650748094104300,8.075104248046875,0.021115798503160477,0.004174533300101757,-0.0017202566377818584
1746650748104070400,8.0850703125,0.005251881666481495,-0.003454890102148056,-0.0008134503732435405
1746650748114036200,8.0950361328125,0.006743930280208588,0.0009400332346558571,0.003045920981094241
1746650748124001500,8.10500146484375,0.06387219578027725,0.013526931405067444,0.0003127187374047935
1746650748133967400,8.11496728515625,0.09136778116226196,0.01648050919175148,0.0036785597912967205
1746650748143933200,8.12493310546875,0.1303977370262146,0.022696593776345253,0.004341687075793743
1746650748153898500,8.1348984375,0.1357797086238861,0.01239096000790596,0.0019144818652421236
1746650748163864300,8.1448642578125,0.07696141302585602,-0.003897998947650194,-0.0007755769765935838
1746650748173830400,8.154830322265624,0.06893451511859894,0.007474119774997234,0.0017532457131892443
1746650748183796500,8.16479638671875,0.09337408095598221,0.006903405301272869,0.0011287343222647905
1746650748193761300,8.17476123046875,0.06116640940308571,0.0038841133937239647,-0.000949655775912106
1746650748203727400,8.184727294921874,0.012934697791934013,-0.001012374646961689,0.0008964475127868354
1746650748213693400,8.194693359375,-0.03137202933430672,-0.005015327595174313,-0.00181301636621356
1746650748223658200,8.204658203125,-0.09725437313318253,-0.0016224603168666363,-0.0005765107343904674
1746650748233624600,8.21462451171875,-0.13591518998146057,-0.014121141284704208,-0.0038052580785006285
1746650748243590400,8.22459033203125,-0.15718905627727509,-0.0011491505429148674,0.0011974899098277092
1746650748253555200,8.23455517578125,-0.16160094738006592,-0.021238751709461212,-0.0040324716828763485
1746650748263521500,8.244521484375,-0.18402983248233795,-0.01833989843726158,-0.0056546032428741455
1746650748273487400,8.2544873046875,-0.18328002095222473,-0.02064206451177597,-0.005463241133838892
1746650748283452400,8.264452392578125,-0.1405932754278183,-0.010699952952563763,-0.004395313560962677
1746650748293418500,8.27441845703125,-0.10437267273664474,0.004928582347929478,-0.0007970795268192887
1746650748303384300,8.28438427734375,-0.041184116154909134,0.0028952592983841896,0.0007345043704845011
1746650748313349400,8.294349365234375,0.013599912635982037,0.00599133875221014,0.0004904437810182571
1746650748323315500,8.3043154296875,0.03307587653398514,0.0045236703008413315,-0.0007188976742327213
1746650748333281500,8.314281494140625,0.05651368200778961,-0.005294493865221739,-0.0025374551769346
1746650748343246300,8.324246337890624,0.0629260390996933,-0.0004898849874734879,-0.003074082313105464
1746650748353212400,8.33421240234375,0.05180615186691284,0.006545808166265488,-0.000271752942353487
1746650748363178500,8.344178466796874,0.019512927159667015,-0.008943668566644192,-0.002901890780776739
1746650748373143600,8.3541435546875,-0.02392544224858284,-0.021143587306141853,-0.0061378744430840015
1746650748383109400,8.364109375,-0.05425272136926651,-0.010966051369905472,-0.0043879118748009205
1746650748393075500,8.374075439453126,-0.05800613388419151,0.012718906626105309,0.0029779972974210978
1746650748403041300,8.384041259765626,-0.03686622902750969,0.0024281851947307587,-0.0019765477627515793
1746650748413006300,8.39400634765625,-0.0007938162889331579,0.0017751334235072136,0.0006991156260482967
1746650748422972400,8.403972412109376,0.04090169817209244,0.016254739835858345,0.0024506766349077225
1746650748432938200,8.413938232421875,0.04996228218078613,0.002706374041736126,-0.001431748503819108
1746650748442903600,8.423903564453125,0.05309575796127319,0.006137590855360031,0.002849549287930131
1746650748452869400,8.433869384765625,0.04980511963367462,0.00004789792001247406,0.0031314725056290627
1746650748462835200,8.443835205078125,0.018773699179291725,0.0062717050313949585,0.0040156422182917595
1746650748472800800,8.45380078125,-0.02011267840862274,-0.0017951857298612595,-0.0003164500812999904
1746650748482766600,8.4637666015625,-0.02937675081193447,0.01210225373506546,0.0010494851740077138
1746650748492732700,8.473732666015625,-0.029549606144428253,-0.002238915767520666,-0.0007844031206332147
1746650748502697700,8.48369775390625,-0.02924520894885063,0.0018277307972311974,-0.0003827984328381717
1746650748512663600,8.49366357421875,0.014818497002124786,0.0011851806193590164,0.0012039912398904562
1746650748522629600,8.503629638671875,0.04037658870220184,0.005978337489068508,-0.0005196065758354962
1746650748532594700,8.5135947265625,0.0347004309296608,0.009503609500825405,0.0011084296274930239
1746650748542560500,8.523560546875,0.028374888002872467,0.016644075512886047,0.0010849938262254
1746650748552526600,8.533526611328124,0.033095091581344604,-0.001054186373949051,0.003625153563916683
1746650748562492700,8.54349267578125,0.02182299643754959,0.007863141596317291,0.003930085804313421
1746650748572457500,8.55345751953125,0.024965614080429077,0.006418649107217789,0.003664577379822731
1746650748582423800,8.563423828125,0.04158879816532135,0.006713194772601128,-0.0027573693078011274
1746650748592389600,8.5733896484375,0.04298210144042969,-0.000027203001081943512,0.0013961568474769592
1746650748602354700,8.583354736328126,0.03366849198937416,0.008813160471618176,-0.0008206584607250988
1746650748612320800,8.59332080078125,0.03316650912165642,0.0031169913709163666,-0.0005705188377760351
1746650748622286600,8.60328662109375,0.030605081468820572,0.0002080211415886879,-0.0017910455353558064
1746650748632251600,8.613251708984375,0.024068471044301987,-0.010955597274005413,-0.0028865872882306576
1746650748642217700,8.6232177734375,0.013086927123367786,-0.015404142439365387,-0.004908725619316101
1746650748652183800,8.633183837890625,-0.008313067257404327,-0.014726055786013603,-0.00528445141389966
1746650748662148600,8.643148681640625,-0.056071002036333084,-0.005631361156702042,0.0007529344875365496
1746650748672114700,8.65311474609375,-0.10975926369428635,-0.008407972753047943,0.0020104791037738323
1746650748682080800,8.663080810546875,-0.11338488757610321,-0.0016126511618494987,-0.0005616018315777183
1746650748692045600,8.673045654296875,-0.07474461942911148,0.006472771987318993,0.0012496731942519546
1746650748702011600,8.68301171875,-0.023908868432044983,-0.0015920787118375301,-0.0030627832747995853
1746650748711977700,8.692977783203125,0.005111434031277895,-0.002759297378361225,-0.0006661587976850569
1746650748721943600,8.702943603515624,0.05079929530620575,-0.011916843242943287,-0.0030038815457373857
1746650748731908600,8.71290869140625,0.09682255238294601,-0.008596369996666908,-0.003992400597780943
1746650748741874700,8.722874755859374,0.13984352350234985,0.0003372039645910263,-0.0008887529838830233
1746650748751840500,8.732840576171874,0.17620883882045746,0.01966227777302265,0.0032184890005737543
1746650748761805600,8.7428056640625,0.16314522922039032,0.005249782465398312,0.00220062886364758
1746650748771771600,8.752771728515626,0.11582689732313156,0.006505212746560574,0.0028973284643143415
1746650748781737500,8.762737548828126,0.05989465489983559,0.0020188521593809128,-0.002090772148221731
1746650748791702800,8.772702880859375,-0.001026941230520606,0.003345048986375332,-0.0008953327778726816
1746650748801668600,8.782668701171875,-0.030916661024093628,-0.001882202923297882,-0.00027082153246738017
1746650748811634400,8.792634521484375,-0.008868602104485035,-0.0027727242559194565,-0.006484205834567547
1746650748821599700,8.802599853515625,0.011386335827410221,-0.002138093113899231,-0.003939022775739431
1746650748831565600,8.812565673828125,-0.012252909131348133,0.005169731564819813,0.00036288663977757096
1746650748841531600,8.82253173828125,-0.05051427707076073,-0.00021624471992254257,-0.0013905386440455914
1746650748851496700,8.83249658203125,-0.09486928582191467,-0.00458025187253952,-0.0015187787357717752
1746650748861462500,8.842462646484375,-0.13611072301864624,0.001981244422495365,-0.002233038656413555
1746650748871428600,8.8524287109375,-0.13203874230384827,-0.005330157466232777,-0.0032990651670843363
1746650748881393700,8.8623935546875,-0.13408565521240234,-0.004532274790108204,-0.005648772232234478
1746650748891359500,8.872359375,-0.1288650929927826,0.0060126688331365585,-0.0015593275893479586
1746650748901325800,8.882325927734374,-0.12220478802919388,0.0033479100093245506,0.0015150255057960749
1746650748911291600,8.892291748046874,-0.13726122677326202,-0.004208511672914028,-0.0011861876118928194
1746650748921256400,8.90225634765625,-0.16787372529506683,-0.0008294926956295967,-0.000980059034191072
1746650748931222800,8.912222900390624,-0.1914237141609192,-0.0014191707596182823,-0.0019542973022907972
1746650748941188600,8.922188720703126,-0.2064833641052246,0.003102877177298069,-0.0003822333528660238
1746650748951153700,8.932153564453126,-0.18669100105762482,-0.0024121953174471855,0.0004785690107382834
1746650748961119700,8.94211962890625,-0.1612761914730072,-0.001008177176117897,-0.002904976950958371
1746650748971085600,8.95208544921875,-0.1768576204776764,0.0009527318179607391,0.001753979828208685
1746650748981050600,8.962050537109375,-0.15786555409431458,-0.009338255040347576,-0.0009046538616530597
1746650748991016700,8.9720166015625,-0.14999455213546753,-0.005664582829922438,-0.0010134712792932987
1746650749000982800,8.981982666015625,-0.10965590924024582,0.0011973176151514053,-0.0019101576181128621
1746650749010947600,8.991947509765625,-0.03997508063912392,0.011073718778789043,0.0010710536735132337
1746650749020913700,9.00191357421875,-0.0265817753970623,0.006435556337237358,-0.0009795803343877196
1746650749030879700,9.011879638671875,-0.013132692314684391,0.002359408885240555,-0.0019329094793647528
1746650749040845600,9.021845458984375,-0.012176617980003357,-0.0034987465478479862,-0.0013398234732449055
1746650749050810600,9.031810546875,-0.02071063220500946,-0.0066183689050376415,-0.002157404785975814
1746650749060776700,9.041776611328125,-0.012754970230162144,-0.0036715809255838394,0.000971809437032789
1746650749070742500,9.051742431640625,-0.022990437224507332,-0.0004101591184735298,0.0009556785225868225
1746650749080707600,9.06170751953125,-0.02221013233065605,0.0037568891420960426,0.0015943044563755393
1746650749090673700,9.071673583984374,0.008892844431102276,-0.0016349246725440025,-0.0015697742346674204
1746650749100639500,9.081639404296874,0.05841432139277458,0.00141998752951622,0.0018031192012131214
1746650749110604800,9.091604736328126,0.1362985074520111,0.008462289348244667,0.003152649151161313
1746650749120570600,9.101570556640626,0.24549344182014465,0.01197526603937149,0.0023505049757659435
1746650749130536400,9.111536376953126,0.3417093753814697,0.0046628499403595924,0.0012174214934930205
1746650749140501800,9.121501708984376,0.33901748061180115,0.012656593695282936,-0.00009471795056015253
1746650749150467600,9.131467529296875,0.31261271238327026,0.011414657346904278,0.001197874080389738
1746650749160433700,9.14143359375,0.29708436131477356,0.015641625970602036,0.0024399724788963795
1746650749170399700,9.151399658203125,0.2628718912601471,-0.002583703026175499,-0.0024333312176167965
1746650749180364500,9.161364501953125,0.17896874248981476,-0.00045876670628786087,-0.0007025428931228817
1746650749190330600,9.17133056640625,0.09542346000671387,0.003709171898663044,0.0018880055285990238
1746650749200296700,9.181296630859375,0.03679715842008591,0.006551031023263931,0.0011817351914942265
1746650749210261500,9.191261474609375,0.019500480964779854,-0.0018176175653934479,0.0008297338499687612
1746650749220227800,9.201227783203125,-0.015985073521733284,-0.00014541856944561005,-0.00021555685088969767
1746650749230193700,9.211193603515625,-0.03338196873664856,0.003964463248848915,0.002146492013707757
1746650749240158500,9.221158447265625,-0.023497644811868668,-0.00039300043135881424,0.0011802972294390202
1746650749250124800,9.231124755859375,-0.007127971388399601,0.0028097862377762794,0.0020046140998601913
1746650749260090600,9.241090576171874,-0.012157351709902287,-0.0035660872235894203,-0.0026878758799284697
1746650749270055700,9.2510556640625,-0.011878235265612602,0.005415991879999638,-0.0017866241978481412
1746650749280021800,9.261021728515624,0.006202497519552708,0.000212973915040493,0.00125150999519974
1746650749289987600,9.270987548828124,0.013835040852427483,-0.000695372000336647,-0.00036337762139737606
1746650749299952600,9.28095263671875,-0.004052612464874983,-0.0005230652168393135,0.0020249453373253345
1746650749309918700,9.290918701171876,-0.009121330454945564,0.0002486603334546089,-0.00020310861873440444
1746650749319884500,9.300884521484376,-0.00994051992893219,0.005984576418995857,0.0007148829754441977
1746650749329850600,9.3108505859375,0.019358385354280472,0.013036221265792847,0.0015182120259851217
1746650749339815700,9.320815673828125,0.036821261048316956,0.01263861171901226,0.0016564300749450922
1746650749349781800,9.33078173828125,0.034765660762786865,0.013336925767362118,0.0017741820774972439
1746650749359747600,9.34074755859375,0.0323251411318779,0.0033697793260216713,-0.0003214592579752207
1746650749369712600,9.350712646484375,-0.01848156377673149,0.001487760804593563,0.00042293191654607654
1746650749379678700,9.3606787109375,-0.019771866500377655,0.004008176736533642,0.0008250692044384778
1746650749389644500,9.37064453125,-0.0014850429724901915,0.005526605062186718,-0.00030315195908769965
1746650749399609600,9.380609619140625,-0.009558682329952717,-0.0023624771274626255,-0.0021210256963968277
1746650749409575700,9.39057568359375,0.029800279065966606,-0.0005229851230978966,0.0013307430781424046
1746650749419541500,9.40054150390625,0.07447747141122818,0.007512304000556469,0.0017781539354473352
1746650749429507800,9.4105078125,0.11264599114656448,0.008533373475074768,0.0011901428224518895
1746650749439472600,9.42047265625,0.11944504082202911,0.008133100345730782,0.0016063948860391974
1746650749449438500,9.4304384765625,0.0989864394068718,0.004801958799362183,-0.0009127495577558875
1746650749459404800,9.44040478515625,0.09944769740104675,0.005240847356617451,-0.0012259372742846608
1746650749469369600,9.45036962890625,0.1138853058218956,0.011755716055631638,0.004412484355270863
1746650749479336200,9.460336181640624,0.13635732233524323,0.0028117550536990166,0.001127209048718214
1746650749489302300,9.47030224609375,0.14196056127548218,0.00423823669552803,0.0027587527874857187
1746650749499267000,9.48026708984375,0.1259610801935196,0.006623629480600357,0.00209056562744081
1746650749509233200,9.490233154296876,0.11123275011777878,0.002649964764714241,-0.00304530281573534
1746650749519199200,9.50019921875,0.09984774142503738,0.006827665492892265,-0.0004804123018402606
1746650749529164000,9.5101640625,0.06998628377914429,0.0036426326259970665,0.0007215781370177865
1746650749539130000,9.520130126953125,0.03799506276845932,-0.00005703046917915344,0.0018105446361005306
1746650749549096200,9.53009619140625,0.016936715692281723,-0.003492837306112051,-0.0022841254249215126
1746650749559062300,9.540062255859375,-0.013970334082841873,-0.005130148492753506,-0.0019845198839902878
1746650749569027000,9.550027099609375,-0.04268760606646538,0.00009668618440628052,-0.002589209470897913
1746650749578993200,9.5599931640625,-0.0364435575902462,-0.0008135829120874405,-0.0038254489190876484
1746650749588959200,9.569959228515625,-0.0034466839861124754,0.003758937120437622,-0.0010801253374665976
1746650749598924300,9.57992431640625,-0.027816737070679665,-0.00075139245018363,-0.003976312931627035
1746650749608890400,9.589890380859375,-0.05475515127182007,-0.000880588311702013,-0.0013528638519346714
1746650749618856200,9.599856201171875,-0.06566426157951355,0.0036209532991051674,0.002687151310965419
1746650749628821200,9.6098212890625,-0.08388031274080276,0.0001057405024766922,0.00011363276280462742
1746650749638787300,9.619787353515624,-0.0684390440583229,0.0002514151856303215,-0.002935154130682349
1746650749648753200,9.629753173828124,-0.04296940937638283,-0.0022749626077711582,-0.0013980841031298041
1746650749658718200,9.63971826171875,-0.009629559703171253,-0.002319437451660633,-0.0010300352005288005
1746650749668684300,9.649684326171876,-0.019867701455950737,-0.0009302813559770584,0.002126928186044097
1746650749678650000,9.659650146484376,-0.0007070573046803474,-0.0028030164539813995,-0.0005279770703054965
1746650749688616200,9.6696162109375,0.04788217693567276,-0.003822095226496458,0.0010511258151382208
1746650749698581200,9.679581298828126,0.0642414391040802,0.0010682670399546623,-0.000796042731963098
1746650749708547000,9.689547119140625,0.05546889081597328,0.005708811804652214,-0.00005303544458001852
1746650749718513200,9.69951318359375,0.04278052598237991,0.004071766510605812,0.001982684712857008
1746650749728478200,9.709478271484375,0.058050211519002914,0.004558880813419819,0.000192264502402395
1746650749738444000,9.719444091796875,0.03719552978873253,0.000817405991256237,-0.0013414500281214714
1746650749748410000,9.72941015625,0.034724485129117966,-0.0005865651182830334,-0.000024737499188631773
1746650749758375200,9.739375244140625,0.01994766853749752,-0.0016688737086951733,0.0009238804341293871
1746650749768341200,9.74934130859375,0.03472784534096718,0.0005819825455546379,-0.0003558140597306192
1746650749778307000,9.75930712890625,0.06898381561040878,0.006780223920941353,-0.00032172558712773025
1746650749788273200,9.769273193359375,0.050135888159275055,0.0049348268657922745,-0.001146893948316574
1746650749798238200,9.77923828125,0.025487534701824188,0.003936141729354858,-0.00006698208744637668
1746650749808204300,9.789204345703125,-0.0044493479654192924,0.0024723997339606285,0.002017935970798135
1746650749818170400,9.79917041015625,-0.04262203350663185,0.0008052606135606766,-0.002827152842655778
1746650749828135200,9.80913525390625,-0.04598196968436241,0.0015451153740286827,0.0008839736692607403
1746650749838101200,9.819101318359374,-0.03618020564317703,0.00035628024488687515,-0.001550688175484538
1746650749848067300,9.8290673828125,-0.020701000466942787,-0.00040214788168668747,-0.0031200365629047155
1746650749858032000,9.8390322265625,-0.026586852967739105,-0.0021901940926909447,-0.0008643390610814095
1746650749867998200,9.848998291015626,-0.04473504051566124,-0.005013883113861084,-0.00195778114721179
1746650749877964300,9.85896435546875,-0.0686454325914383,-0.00567993987351656,-0.00019636651268228889
1746650749887929000,9.86892919921875,-0.06237957254052162,-0.002085044514387846,-0.002060946077108383
1746650749897895200,9.878895263671875,-0.04714309796690941,-0.002701832912862301,-0.002173065207898617
1746650749907861200,9.888861328125,0.0012465673498809338,0.005950617603957653,0.0004481144715100527
1746650749917827000,9.8988271484375,0.060066740959882736,0.008354387246072292,0.0013312187511473894
1746650749927792400,9.90879248046875,0.07138212025165558,0.003202117048203945,0.00034706370206549764
1746650749937758200,9.91875830078125,0.04850982874631882,0.00455180648714304,0.0008706412045285106
1746650749947724000,9.92872412109375,-0.012836359441280365,-0.002451008651405573,-0.0006029197829775512
1746650749957689300,9.938689453125,-0.04290477931499481,-0.002146875485777855,-0.0004625711590051651
1746650749967655200,9.9486552734375,-0.0017379617784172297,0.006090372800827026,-0.003246818669140339
1746650749977621000,9.95862109375,0.04335654526948929,0.013365862891077995,0.0030701993964612484
1746650749987586300,9.96858642578125,0.05170575529336929,0.00773706566542387,0.0022007336374372244
1746650749997552000,9.97855224609375,0.06612091511487961,0.00135852862149477,-0.0010858734603971243
1746650750007518200,9.988518310546874,0.073680080473423,0.005051440559327602,-0.0004271090729162097
1746650750017484300,9.998484375,0.08524352312088013,-0.00045757461339235306,-0.0017597548430785537
1746650750027449000,10.008448974609376,0.08392520248889923,0.0005060508847236633,-0.00033647369127720594
1746650750037415200,10.018415283203124,0.023335356265306473,-0.0006601475179195404,0.0006222643423825502
1746650750047381200,10.02838134765625,-0.0466451458632946,-0.006542018614709377,-0.0020936373621225357
1746650750057346000,10.038345947265626,-0.1145528256893158,-0.012525875121355057,-0.004460388794541359
1746650750067312000,10.04831201171875,-0.1923513561487198,-0.014704491943120956,-0.000992574612610042
1746650750077278200,10.0582783203125,-0.2626739740371704,-0.015191851183772087,-0.0013744719326496124
1746650750087243000,10.068242919921875,-0.2972734272480011,-0.03537730127573013,-0.009853732772171497
1746650750097209000,10.078208984375,-0.2879211902618408,-0.0490260012447834,-0.011092103086411953
1746650750107175200,10.088175048828125,-0.23578236997127533,-0.0151705676689744,-0.005562049336731434
1746650750117141200,10.098141357421875,-0.14713692665100098,-0.0004747118800878525,-0.0005686221993528306
1746650750127106300,10.108106201171875,-0.0829034298658371,0.0032867584377527237,-0.0005081456620246172
1746650750137072000,10.118072021484375,-0.014354991726577282,0.00837872363626957,0.0023052175529301167
1746650750147038200,10.1280380859375,0.06254494190216064,0.016765300184488297,0.001652217353694141
1746650750157003300,10.138003173828125,0.0843125507235527,0.009046927094459534,0.004020566586405039
1746650750166969300,10.14796923828125,0.11631903797388077,0.003829234279692173,0.000501983508002013
1746650750176935200,10.15793505859375,0.16467592120170593,0.0038745077326893806,-0.0005779283819720149
1746650750186900200,10.167900146484374,0.22453297674655914,0.0016642073169350624,0.0010648148600012064
1746650750196866300,10.1778662109375,0.26976463198661804,0.005480517633259296,0.002104779239743948
1746650750206832000,10.18783203125,0.30683842301368713,0.01253757905215025,0.002678112592548132
1746650750216798200,10.197798095703124,0.30964192748069763,0.017476413398981094,0.004120480269193649
1746650750226763300,10.20776318359375,0.2982945740222931,0.015633244067430496,0.0011984764132648706
1746650750236729000,10.21772900390625,0.2434222400188446,-0.0004293452948331833,-0.0000036745332181453705
1746650750246695200,10.227695068359376,0.167669877409935,0.002723061479628086,0.0021260781213641167
1746650750256660200,10.23766015625,0.1557817906141281,0.008866707794368267,0.0035737724974751472
1746650750266626000,10.2476259765625,0.12751087546348572,-0.00449049286544323,-0.0003779398975893855
1746650750276592000,10.257592041015625,0.07744664698839188,-0.004797555506229401,0.00329296151176095
1746650750286557200,10.26755712890625,0.020427392795681953,-0.004791680723428726,-0.00048073098878376186
1746650750296523000,10.27752294921875,-0.13650630414485931,-0.009825054556131363,-0.0025012711994349957
1746650750306489300,10.2874892578125,-0.29988527297973633,-0.02363407239317894,-0.007411858066916466
1746650750316455200,10.297455078125,-0.39409273862838745,-0.022945644333958626,-0.0040168603882193565
1746650750326420200,10.307420166015625,-0.3699653744697571,-0.01135181449353695,-0.0028274699579924345
1746650750336386300,10.31738623046875,-0.26890453696250916,0.006333705969154835,-0.0002436709764879197
1746650750346352000,10.32735205078125,-0.05877766013145447,0.002024484798312187,0.0014709016541019082
1746650750356317200,10.337317138671875,0.13649383187294006,0.021189123392105103,0.006333833560347557
1746650750366283300,10.347283203125,0.1887545883655548,0.01909836381673813,0.004021777305752039
1746650750376249000,10.3572490234375,0.1869731992483139,0.015118801966309547,0.0029684968758374453
1746650750386214100,10.367214111328124,0.20486293733119965,0.014616709202528,-0.00017228585784323514
1746650750396180200,10.37718017578125,0.24262337386608124,0.013370614498853683,0.0043151406571269035
1746650750406146300,10.387146240234374,0.22742512822151184,0.009245018474757671,0.004276717081665993
1746650750416112000,10.397112060546876,0.21820074319839478,0.004470769315958023,0.002344593871384859
1746650750426077200,10.4070771484375,0.20021188259124756,-0.0013179164379835129,-0.0016720155254006386
1746650750436043300,10.417043212890626,0.19262586534023285,0.001382528804242611,0.0013818313600495458
1746650750446009000,10.427009033203126,0.177089661359787,0.006679210811853409,0.0011939944233745337
1746650750455974100,10.43697412109375,0.14125150442123413,0.0008807098492980003,-0.00010962283704429865
1746650750465940200,10.446940185546875,0.046531084924936295,0.001725098118185997,0.00014646613271906972
1746650750475906300,10.45690625,-0.06751878559589386,-0.004124268889427185,-0.0011840490624308586
1746650750485871400,10.466871337890625,-0.15099512040615082,-0.016442429274320602,-0.0015885606408119202
1746650750495837200,10.476837158203125,-0.2085082083940506,-0.014162231236696243,-0.0031600920483469963
1746650750505803300,10.48680322265625,-0.2944192588329315,-0.0036745560355484486,-0.0018395440420135856
1746650750515769300,10.496769287109375,-0.3183874487876892,-0.020440485328435898,-0.001834483933635056
1746650750525734100,10.506734130859375,-0.25130224227905273,0.0011142231523990631,0.0001454624580219388
1746650750535700200,10.5167001953125,-0.12048593908548355,0.003773922100663185,-0.0005690636462531984
1746650750545666300,10.526666259765625,-0.029160303995013237,0.008794441819190979,0.0007105168187990785
1746650750555631000,10.536631103515624,-0.001493255142122507,0.004796504974365234,0.0006362146232277155
1746650750565597200,10.54659716796875,-0.01838943548500538,0.0023471256718039513,0.00014532561181113124
1746650750575563300,10.556563232421874,-0.055429477244615555,0.0008387109264731407,-0.0007138101500459015
1746650750585528300,10.5665283203125,-0.07787947356700897,0.008572022430598736,0.0020678844302892685
1746650750595494100,10.576494140625,-0.09569335728883743,-0.0004992363974452019,0.00021166115766391158
1746650750605460200,10.586460205078126,-0.11031507700681686,0.0016081687062978745,0.00014166563050821424
1746650750615426300,10.59642626953125,-0.10066963732242584,-0.0021543456241488457,-0.0016482449136674404
1746650750625391400,10.606391357421876,-0.09236720949411392,0.0045534707605838776,0.0003782519488595426
1746650750635357400,10.616357421875,-0.05214095488190651,0.0016745934262871742,-0.0005136406980454922
1746650750645323300,10.6263232421875,-0.00622194167226553,-0.0032943738624453545,-0.003643949516117573
1746650750655288300,10.636288330078125,0.019841883331537247,-0.0005260184407234192,0.0016347020864486694
1746650750665254400,10.64625439453125,0.0248114001005888,-0.003798070829361677,-0.001355586340650916
1746650750675220200,10.65622021484375,0.04420480504631996,0.007859917357563972,0.0013856054283678532
1746650750685185300,10.666185302734375,0.07088999450206757,0.008101604878902435,0.0025628593284636736
1746650750695151400,10.6761513671875,0.12438544631004333,0.00963132455945015,0.003954361192882061
1746650750705117200,10.6861171875,0.16852736473083496,0.01134414691478014,-0.00036275293678045273
1746650750715083300,10.696083251953125,0.18968191742897034,0.005537389777600765,0.001811451744288206
1746650750725048300,10.70604833984375,0.204427570104599,0.008817000314593315,0.004269215278327465
1746650750735014100,10.71601416015625,0.2000245600938797,0.0054273298010230064,0.0005381262162700295
1746650750744980200,10.725980224609375,0.17933836579322815,0.0025689825415611267,0.0008678482845425606
1746650750754945300,10.7359453125,0.12955084443092346,0.0037495624274015427,0.003147247713059187
1746650750764911000,10.7459111328125,0.06371846795082092,-0.006595800630748272,-0.001149808056652546
1746650750774877200,10.755877197265624,0.010913043282926083,-0.005810434464365244,0.001099231420084834
1746650750784842200,10.76584228515625,-0.07660424709320068,-0.0034509976394474506,-0.003096708795055747
1746650750794808300,10.775808349609376,-0.13485795259475708,-0.002056033816188574,-0.0009901482844725251
1746650750804774400,10.7857744140625,-0.13398496806621552,-0.006348783150315285,-0.0031608908902853727
1746650750814740200,10.795740234375,-0.10819918662309647,-0.005256887059658766,-0.0011515358928591013
1746650750824705300,10.805705322265625,-0.11483156681060791,-0.00034722592681646347,0.0008118827827274799
1746650750834671400,10.81567138671875,-0.07697659730911255,0.0012661172077059746,-0.00013833309640176594
1746650750844637400,10.825637451171875,-0.03576384857296944,0.0029715532436966896,0.0000557500752620399
1746650750854602200,10.835602294921875,-0.026780739426612854,-0.0016282587312161922,0.0011825335677713156
1746650750864568300,10.845568359375,-0.059440504759550095,-0.0029542651027441025,-0.00310835731215775
1746650750874534400,10.855534423828125,-0.0501553937792778,-0.002554791048169136,-0.004163235425949097
1746650750884499200,10.865499267578125,-0.02874166890978813,-0.0030436059460043907,0.0006867846241220832
1746650750894465300,10.87546533203125,-0.015887655317783356,0.0025061555206775665,0.00135550438426435
1746650750904431400,10.885431396484375,0.0005032640183344483,-0.00377980200573802,-0.0011996388202533126
1746650750914397200,10.895397216796875,-0.01116484310477972,0.002535085193812847,-0.0016398594016209245
1746650750924362200,10.9053623046875,-0.017978768795728683,0.0008334238082170486,-0.002221918199211359
1746650750934328300,10.915328369140624,-0.005987354554235935,0.003429473377764225,-0.00021043253946118057
1746650750944294100,10.925294189453124,0.01676928997039795,0.0018018046393990517,0.0025931394193321466
1746650750954259500,10.935259521484374,0.016686465591192245,-0.00003950484097003937,0.0024139087181538343
1746650750964225300,10.945225341796874,-0.029583722352981567,-0.0030946368351578712,0.0013319135177880526
1746650750974191000,10.955191162109376,-0.09187079966068268,0.0005586873739957809,0.0006850317004136741
1746650750984157400,10.965157470703126,-0.08183043450117111,-0.006266757845878601,-0.002098275115713477
1746650750994122200,10.975122314453126,-0.021055765450000763,0.0025991713628172874,0.00151723250746727
1746650751004088000,10.985088134765626,0.023097913712263107,0.0054532308131456375,0.00008785334648564458
1746650751014054400,10.995054443359376,0.04014560952782631,0.003308054991066456,0.0017081204568967223
1746650751024019200,11.005019287109375,0.033543482422828674,-0.0003561144694685936,-0.0006494895787909627
1746650751033985300,11.0149853515625,0.02377447672188282,0.00003004353493452072,0.004200659226626158
1746650751043951400,11.024951416015625,-0.0012887991033494473,0.000699029304087162,-0.0004918304039165378
1746650751053916200,11.034916259765625,-0.0065221767872571945,0.0016662897542119026,0.00008501025149598718
1746650751063882200,11.04488232421875,-0.040408894419670105,-0.0015535904094576836,-0.0006714410264976323
1746650751073848300,11.054848388671875,-0.05980096757411957,-0.0008393307216465473,-0.0006088567315600812
1746650751083814400,11.064814453125,-0.03121449425816536,0.004805819131433964,0.0022082803770899773
1746650751093779200,11.074779296875,0.040057819336652756,0.007532362826168537,-0.0012740688398480415
1746650751103745300,11.084745361328125,0.06711695343255997,0.007698786444962025,0.0013347410131245852
1746650751113711400,11.09471142578125,0.04533255845308304,0.001322646625339985,-0.0005505107692442834
1746650751123676400,11.104676513671874,0.0213728379458189,-0.003982274793088436,-0.00015280937077477574
1746650751133642200,11.114642333984374,0.004275077022612095,-0.007819623686373234,0.0005856852512806654
1746650751143608300,11.1246083984375,-0.023758888244628906,-0.005899533629417419,-0.002568358089774847
1746650751153574100,11.13457421875,-0.009707783348858356,-0.010611198842525482,0.0002628483925946057
1746650751163539200,11.144539306640626,0.0034873581025749445,-0.009017635136842728,-0.0002639925223775208
1746650751173505300,11.15450537109375,0.02822119928896427,-0.0059677837416529655,-0.0003657252818811685
1746650751183471000,11.16447119140625,0.049391526728868484,-0.005130315199494362,-0.0019123137462884188
1746650751193436400,11.1744365234375,0.06608368456363678,0.0026839319616556168,0.0019503349903970957
1746650751203402200,11.18440234375,0.0692753791809082,-0.00039925798773765564,-0.0002643951738718897
1746650751213368000,11.1943681640625,0.04729204997420311,0.000796235166490078,0.0019223263952881098
1746650751223333400,11.20433349609375,0.044324204325675964,0.003814324736595154,-0.0004506181867327541
1746650751233299200,11.21429931640625,0.019777582958340645,0.005259888246655464,0.0008868213044479489
1746650751243265300,11.224265380859375,-0.004019382409751415,-0.004420241340994835,-0.0006552200648002326
1746650751253231400,11.2342314453125,-0.0546782985329628,-0.0114323440939188,-0.002286672592163086
1746650751263196200,11.244196044921875,-0.10061804950237274,-0.016584886237978935,-0.0046865795738995075
1746650751273162200,11.254162353515625,-0.10757981985807419,-0.013582704588770866,-0.0030876179225742817
1746650751283128300,11.26412841796875,-0.08431980758905411,-0.013089852407574654,-0.004625702742487192
1746650751293093000,11.274093017578124,-0.04034782201051712,-0.008145160973072052,-0.0013191220350563526
1746650751303059500,11.2840595703125,-0.008513940498232841,0.005010716617107391,0.003547683823853731
1746650751313025300,11.294025390625,0.006446367595344782,-0.002327623311430216,0.0007489676936529577
1746650751322990000,11.303989990234374,-0.02072676084935665,-0.0005875192582607269,0.0002109917113557458
1746650751332956400,11.313956298828124,-0.04179849103093147,-0.016233325004577637,-0.002507829573005438
1746650751342922200,11.323922119140626,-0.04489728435873985,-0.004539479035884142,-0.0006615513702854514
1746650751352888300,11.333888427734376,-0.029362265020608902,0.004012197256088257,-0.0027212402783334255
1746650751362853400,11.343853271484376,-0.020667845383286476,-0.007083063945174217,-0.0002490282931830734
1746650751372819200,11.353819091796876,0.0024025863967835903,-0.019329875707626343,-0.0019084439845755696
1746650751382785300,11.363785400390626,0.01030750758945942,-0.005873337388038635,-0.0012337517691776156
1746650751392750300,11.373750244140625,0.042966119945049286,-0.0009611365385353565,-0.0012721011880785227
1746650751402716200,11.383716064453125,0.04839683696627617,0.007981757633388042,0.002148462925106287
1746650751412682200,11.39368212890625,0.061973631381988525,0.0009046737104654312,0.0012922565219923854
1746650751422648000,11.40364794921875,0.06967242807149887,0.012392339296638966,0.00322955334559083
1746650751432613400,11.41361328125,0.09783349186182022,0.02509402111172676,0.007229887414723635
1746650751442579200,11.4235791015625,0.12413137406110764,0.020115965977311134,0.005509151145815849
1746650751452545300,11.433545166015625,0.09729842841625214,0.014095092192292213,0.0011522196000441909
1746650751462510300,11.44351025390625,0.07111107558012009,0.009997918270528316,0.0011970681371167302
1746650751472475600,11.4534755859375,0.04363151639699936,0.005608496256172657,0.0010982649400830269
1746650751482441700,11.463441650390624,0.024554146453738213,0.004415956325829029,0.00293267285451293
1746650751492406800,11.47340673828125,0.02862771786749363,-0.0008826693519949913,-0.0019174759509041905
1746650751502372900,11.483372802734374,0.011984809301793575,-0.002078188583254814,0.0005102220457047224
1746650751512339000,11.4933388671875,-0.006875696592032909,-0.0025660796090960503,0.0014929285971447825
1746650751522304800,11.5033046875,0.007427978329360485,-0.0032912096939980984,0.0008093403885141015
1746650751532269800,11.513269775390626,0.03950762003660202,-0.0006344402208924294,-0.0018953660037368536
1746650751542236000,11.52323583984375,0.04112163558602333,0.002260827459394932,0.002178358379751444
1746650751552201700,11.53320166015625,0.021888550370931625,-0.0021352525800466537,-0.00416582403704524
1746650751562166800,11.543166748046875,-0.022284679114818573,-0.004796791821718216,-0.00072048744186759
1746650751572132900,11.5531328125,-0.04153667017817497,-0.006022910587489605,0.00016208412125706673
1746650751582098700,11.5630986328125,-0.04322074353694916,-0.002423621714115143,-0.00165892846416682
1746650751592064800,11.573064697265625,-0.04582398384809494,0.003652113489806652,0.00042579404544085264
1746650751602029800,11.58302978515625,-0.04541580006480217,0.0013754013925790787,-0.00037952320417389274
1746650751611995600,11.59299560546875,-0.03249867260456085,-0.011836806312203407,-0.006285881623625755
1746650751621961700,11.602961669921875,-0.046607546508312225,-0.010004747658967972,-0.0030077286064624786
1746650751631926800,11.6129267578125,-0.05380607023835182,0.002840477041900158,-0.0005917090456932783
1746650751641892600,11.622892578125,-0.04198457673192024,-0.00848890095949173,-0.0028615607880055904
1746650751651858700,11.632858642578125,-0.03824443370103836,-0.013802707195281982,-0.0037939336616545916
1746650751661824800,11.64282470703125,-0.04781174659729004,0.0006912834942340851,-0.0010969333816319704
1746650751671789800,11.652789794921874,-0.04003052040934563,0.008930305019021034,0.0004479663330130279
1746650751681756000,11.662755859375,-0.00930081494152546,0.003948933444917202,-0.00032508120057173073
1746650751691721700,11.6727216796875,0.003996880259364843,0.01464338880032301,0.0022051879204809666
1746650751701686800,11.682686767578126,0.009641982614994049,0.011202852241694927,0.002910926006734371
1746650751711652900,11.69265283203125,0.011417511850595474,0.0048176562413573265,-0.0009179008193314075
1746650751721619000,11.702618896484376,0.003101769834756851,0.004050594754517078,0.0009656848851591349
1746650751731583700,11.712583740234376,0.012332020327448845,0.0016849087551236153,0.0015292097814381123
1746650751741549800,11.7225498046875,0.02050176076591015,-0.0019219093956053257,-0.000034705939469859004
1746650751751516000,11.732515869140625,0.025779614225029945,0.0009788060560822487,0.0010420100297778845
1746650751761481700,11.742481689453125,0.023859187960624695,0.002872774377465248,0.0031540950294584036
