time,seconds_elapsed,z,y,x
1740933577505084200,0.047084228515625,-0.0014150890056043863,-0.0005883350968360901,-0.001963005168363452
1740933577515051000,0.057051025390625,-0.0005103072617202997,-0.0003861011937260628,-0.00045071059139445424
1740933577525017000,0.06701708984375,-0.0005862072575837374,0.0013843681663274765,0.0008182856254279613
1740933577534984000,0.07698388671875,0.0014705415815114975,-0.0006393715739250183,0.00027533501270227134
1740933577544951000,0.086950927734375,-0.000010974938049912453,0.001617390662431717,0.002140613039955497
1740933577554916900,0.096916748046875,-0.0006183800287544727,0.0017571430653333664,-0.0018645827658474445
1740933577564884000,0.106884033203125,0.000987506122328341,0.0004977341741323471,0.001261169440113008
1740933577574850000,0.11685009765625,-0.001498132012784481,-0.000359497033059597,0.0019281505374237895
1740933577584817000,0.12681689453125,-0.0005247467197477818,-0.0010870727710425854,0.0003869792853947729
1740933577594784000,0.136783935546875,0.0016231595072895288,0.0018329024314880371,-0.0024420840200036764
1740933577604750000,0.14675,-0.0009174961596727371,-0.002131745219230652,0.0013840795727446675
1740933577614717200,0.15671728515625,0.002269695047289133,0.00170951709151268,0.001961994217708707
1740933577624684300,0.166684326171875,0.0015767405275255442,0.00006421655416488647,-0.0005914447247050703
1740933577634650000,0.176650146484375,-0.0013628234155476093,0.0002876967191696167,0.0008138377452269197
1740933577644617200,0.1866171875,0.00031843024771660566,0.0015191426500678062,0.0005970563506707549
1740933577654583300,0.196583251953125,0.0008344947127625346,-0.002148738596588373,-0.0015101374592632055
1740933577664550400,0.20655029296875,-0.0007040135096758604,0.0018505305051803589,-0.0002320864878129214
1740933577674517200,0.216517333984375,-0.0011234055273234844,-0.0015735807828605175,-0.0021124710328876972
1740933577684483300,0.2264833984375,0.0009799590334296227,0.0010597528889775276,-0.0014429523143917322
1740933577694450200,0.2364501953125,0.0005590050714090466,0.0011634593829512596,0.0006787352031096816
1740933577704416300,0.246416259765625,0.0004378312733024359,-0.00007863808423280716,0.0015820794505998492
1740933577714383000,0.256383056640625,0.00197835685685277,-0.0011091767810285091,0.0003894676628988236
1740933577724350200,0.26635009765625,0.0014539803378283978,-0.0012210295535624027,-0.000533051323145628
1740933577734316000,0.27631591796875,-0.0011067134328186512,0.0014161542057991028,-0.0019192076288163662
1740933577744283100,0.286283203125,0.0019969346467405558,-0.0011716391891241074,-0.000057391764130443335
1740933577754250200,0.296250244140625,0.000192263163626194,0.00037525687366724014,-0.0008363840170204639
1740933577764216000,0.306216064453125,0.0004950646543875337,0.0005456991493701935,-0.0004222624411340803
1740933577774183200,0.31618310546875,-0.000986618222668767,0.003039756789803505,0.0013470187550410628
1740933577784149200,0.326149169921875,-0.000023086555302143097,-0.0010753595270216465,-0.00003383020521141589
1740933577794116400,0.336116455078125,0.0005285035585984588,-0.00016798079013824463,0.001629335107281804
1740933577804083200,0.346083251953125,-0.00022117630578577518,0.000461590476334095,-0.000060706952353939414
1740933577814049300,0.35604931640625,-0.0010810638777911663,0.0011875266209244728,-0.001266560866497457
1740933577824016400,0.366016357421875,0.0016036687884479761,-0.00006469246000051498,-0.001355244079604745
1740933577833982200,0.375982177734375,-0.000943527091294527,-0.001531259622424841,-0.002853051060810685
1740933577843949300,0.38594921875,-0.0014082486741244793,0.0007753046229481697,-0.0008295814623124897
1740933577853916200,0.395916259765625,0.0024421289563179016,-0.00048267003148794174,0.0031068120151758194
1740933577863882200,0.40588232421875,-0.00016111088916659355,0.0005591586232185364,0.000505169911775738
1740933577873849000,0.41584912109375,0.00021267717238515615,0.003286031074821949,-0.0008312000427395105
1740933577883816200,0.425816162109375,-0.000999061157926917,-0.0014117853716015816,0.0020335621666163206
1740933577893782000,0.435781982421875,-0.0008915069047361612,0.0013845600187778473,-0.002545237774029374
1740933577903749000,0.4457490234375,0.0011431481689214706,0.001215449534356594,-0.0012109940871596336
1740933577913715200,0.455715087890625,-0.00009056110866367817,0.0005153752863407135,-0.001986342016607523
1740933577923682300,0.465682373046875,-0.0018221484497189522,-0.00017678085714578629,0.0014978715917095542
1740933577933649400,0.4756494140625,0.000692621455527842,0.0009059477597475052,-0.002312017371878028
1740933577943615200,0.485615234375,-0.0008533436339348555,-0.0015361704863607883,-0.0016787175554782152
1740933577953582300,0.495582275390625,-0.00009026122279465199,0.0012571830302476883,0.0009021072764880955
1740933577963549200,0.505549072265625,-0.003158755600452423,0.0009637027978897095,0.00020462542306631804
1740933577973515300,0.515515380859375,-0.0009695584885776043,-0.0006027445197105408,0.0016377705615013838
1740933577983482000,0.525482177734375,-0.0000196089968085289,0.00020712241530418396,0.0026814634911715984
1740933577993448200,0.5354482421875,-0.0006018471904098988,-0.002081465907394886,0.002188502112403512
1740933578003415000,0.5454150390625,-0.0011033203918486834,0.0006554648280143738,0.0014177834382280707
1740933578013382100,0.555382080078125,-0.0008080550469458103,-0.0004897052422165871,-0.002933535724878311
1740933578023348200,0.56534814453125,0.000995970331132412,-0.0026862798258662224,0.00014854047913104296
1740933578033315000,0.575315185546875,-0.0025854108389467,-0.0010957303456962109,0.0007135138148441911
1740933578043282200,0.5852822265625,0.0010101228253915906,-0.0008339416235685349,-0.0005296497256495059
1740933578053248300,0.595248291015625,0.0012964012566953897,-0.0013966718688607216,0.0004862090281676501
1740933578063215400,0.60521533203125,-0.00007219705730676651,-0.0007404694333672523,0.001371177495457232
1740933578073181200,0.61518115234375,0.0007918293122202158,0.00029378756880760193,0.00005360410432331264
1740933578083148300,0.625148193359375,-0.00035759108141064644,-0.0026087919250130653,-0.002035645768046379
1740933578093115400,0.635115478515625,-0.00021549290977418423,-0.001863610465079546,-0.0014893008628860116
1740933578103081200,0.645081298828125,0.00030009495094418526,-0.001554417423903942,0.0021320655941963196
1740933578113048300,0.65504833984375,0.0008984813466668129,0.0003001168370246887,0.0031638359650969505
1740933578123015200,0.66501513671875,0.0004151177126914263,0.001073232851922512,-0.0001944099203683436
1740933578132981200,0.674981201171875,-0.0013716192916035652,-0.0005264673382043839,0.0000033175747375935316
1740933578142948000,0.684947998046875,0.0014281619805842638,-0.0005027651786804199,0.0031045686919242144
1740933578152914200,0.6949140625,-0.000028260517865419388,-0.00014508143067359924,0.0010828014928847551
1740933578162881000,0.704881103515625,0.0011520523112267256,-0.0027299458160996437,0.0005019660457037389
1740933578172848000,0.71484814453125,0.0006288094446063042,-0.0017378758639097214,-0.0006797182140871882
1740933578182814200,0.724814208984375,-0.0009605651721358299,0.0012512560933828354,-0.00036866095615550876
1740933578192781300,0.73478125,0.0007723536109551787,-0.0011779977940022945,0.0005924380384385586
1740933578202748400,0.74474853515625,0.000969427521340549,-0.0006781229749321938,-0.0007950688013806939
1740933578212714200,0.75471435546875,0.0006542415358126163,0.000004926696419715881,0.0013101751683279872
1740933578222681300,0.764681396484375,-0.0007276725955307484,0.00018815230578184128,0.00040043945773504674
1740933578232647200,0.774647216796875,0.00013194174971431494,-0.0009147883392870426,0.002062789164483547
1740933578242614300,0.7846142578125,-0.001161821885034442,0.0003217170014977455,0.0004182873817626387
1740933578252581000,0.7945810546875,-0.0008727929089218378,-0.002437991090118885,0.0011894055642187595
1740933578262547200,0.804547119140625,0.0003096505533903837,-0.001985786482691765,0.002129234839230776
1740933578272514000,0.81451416015625,0.000781369861215353,-0.0017935652285814285,0.0044851708225905895
1740933578282480000,0.824480224609375,0.00038828724063932896,-0.0007528015412390232,0.0010113430907949805
1740933578292447200,0.834447265625,-0.0005050234030932188,-0.0007018717005848885,-0.0014823644887655973
1740933578302414000,0.8444140625,0.0004965913249179721,-0.0024835262447595596,-0.0015745097771286964
1740933578312380400,0.85438037109375,-0.001135840080678463,-0.002191329374909401,-0.0008448858861811459
1740933578322347300,0.86434716796875,0.0013709933264181018,-0.0002978220582008362,-0.0009008122724480927
1740933578332314400,0.874314453125,0.00030881573911756277,-0.0010398956947028637,0.003168446011841297
1740933578342280200,0.8842802734375,-0.0009609793778508902,0.00038196612149477005,0.0010507000843062997
1740933578352247300,0.894247314453125,-0.0007106910925358534,-0.003333697561174631,-0.001755438046529889
1740933578362214400,0.90421435546875,-0.0004824581556022167,-0.0021850764751434326,-0.00020068470621481538
1740933578372180200,0.91418017578125,-0.0008891259785741568,-0.003702114336192608,0.0023532239720225334
1740933578382147300,0.924147216796875,0.0005023757694289088,-0.00311222393065691,0.0014584019081667066
1740933578392113200,0.934113037109375,0.0002994057722389698,-0.0023978897370398045,0.005054359324276447
1740933578402080300,0.944080322265625,-0.0009456221014261246,-0.0010215681977570057,0.00224099587649107
1740933578412047000,0.954047119140625,0.0015241093933582306,0.0008873119950294495,0.0030552034731954336
1740933578422013200,0.96401318359375,-0.00108951679430902,-0.0012368252500891685,-0.0004785450000781566
1740933578431980000,0.97397998046875,-0.0005094800144433975,-0.0010191886685788631,-0.0008018265943974257
1740933578441947100,0.983947021484375,0.0005635075503960252,-0.0026216129772365093,0.00010577868670225143
1740933578451913200,0.993913330078125,-0.0013331181835383177,0.00007914751768112183,-0.0006742326077073812
1740933578461880300,1.00388037109375,-0.00019115465693175793,-0.0033139861188828945,0.0007114101317711174
1740933578471846100,1.01384619140625,0.001394973834976554,0.0009524049237370491,0.0009981265757232904
1740933578481813200,1.023813232421875,-0.0010969459544867277,-0.0007560132071375847,0.0006785471923649311
1740933578491780400,1.0337802734375,-0.0005099545232951641,-0.0020651621744036674,0.003160578664392233
1740933578501746200,1.04374609375,-0.0010292709339410067,-0.0009777937084436417,0.0006082051550038159
1740933578511713300,1.05371337890625,-0.002655433025211096,-0.00029904767870903015,0.0017593827797099948
1740933578521680100,1.06368017578125,-0.0005693789571523666,0.001021081581711769,0.0004192800843156874
1740933578531646200,1.073646240234375,-0.0005100197158753872,0.00030609872192144394,-0.0008305188966915011
1740933578541613000,1.083613037109375,-0.001073810737580061,0.0002538999542593956,-0.0009570190450176597
1740933578551579100,1.0935791015625,-0.00030749128200113773,0.0006557852029800415,0.0008886151481419802
1740933578561546200,1.103546142578125,-0.0001879155170172453,0.0001801447942852974,-0.0007843826897442341
1740933578571513000,1.11351318359375,-0.0016090285498648882,-0.002706279046833515,0.0019333935342729092
1740933578581479400,1.1234794921875,0.00034306850284338,-0.0012418068945407867,-0.00026451318990439177
1740933578591446300,1.1334462890625,-0.0005453734192997217,0.0012646764516830444,0.0023306445218622684
1740933578601412900,1.143412841796875,0.0007734239334240556,0.0007887696847319603,-0.000403356651077047
1740933578611378700,1.153378662109375,0.0014004928525537252,-0.0008297809399664402,-0.0009798880200833082
1740933578621345800,1.163345703125,0.0013099454808980227,-0.0002148570492863655,0.00036713891313411295
1740933578631311600,1.1733115234375,0.00035059801302850246,-0.00022933539003133774,-0.0006966073997318745
1740933578641278700,1.18327880859375,-0.0013160081580281258,0.0006255386397242546,-0.001313928165473044
1740933578651245600,1.19324560546875,-0.0003494312986731529,-0.00014032796025276184,-0.0007036294555291533
1740933578661211600,1.203211669921875,-0.0011182858143001795,-0.0007395395077764988,0.00011316203745082021
1740933578671178500,1.213178466796875,-0.00024900841526687145,-0.00022847577929496765,0.0021278541535139084
1740933578681145600,1.2231455078125,0.00024660583585500717,0.00021680444478988647,0.0020122728310525417
1740933578691111700,1.233111572265625,0.0016628056764602661,0.003593362867832184,0.002187366597354412
1740933578701078500,1.24307861328125,-0.0001095279585570097,0.0003490997478365898,-0.0013865954242646694
1740933578711044900,1.253044921875,0.00038006645627319813,0.0011154348030686378,0.0009574046125635505
1740933578721011700,1.26301171875,-0.0002289984840899706,0.0005660252645611763,-0.0013981614029034972
1740933578730978800,1.272978759765625,-0.0017566923052072525,0.0003493744879961014,0.0002743281074799597
1740933578740944600,1.282944580078125,-0.0019353902898728848,-0.0007331999950110912,-0.0019752439111471176
1740933578750911700,1.292911865234375,0.0016633386258035898,0.001620640978217125,-0.0019435721915215254
1740933578760878600,1.302878662109375,-0.00021179323084652424,0.00035617221146821976,-0.0016708646435290575
1740933578770844700,1.3128447265625,-0.00029354868456721306,-0.0003874506801366806,0.0007232236093841493
1740933578780811800,1.322811767578125,-0.0005231131799519062,0.0012687686830759048,0.0020904906559735537
1740933578790777600,1.332777587890625,-0.0010769674554467201,0.0011215535923838615,0.00010133936302736402
1740933578800744700,1.34274462890625,-0.0013052001595497131,0.002278164029121399,0.00004088558489456773
1740933578810711600,1.352711669921875,-0.0007608619052916765,0.0013571018353104591,-0.001233401708304882
1740933578820677600,1.362677734375,0.0008002830436453223,0.0014620311558246613,-0.0024904136080294847
1740933578830644500,1.37264453125,0.0023902959655970335,0.0009370138868689537,0.0016039995243772864
1740933578840611600,1.382611572265625,-0.0005200065206736326,-0.0005852486938238144,-0.00038697957643307745
1740933578850577700,1.39257763671875,0.0004219016991555691,0.0004004407674074173,-0.00027391285402700305
1740933578860544800,1.402544677734375,0.000989687629044056,0.0016614478081464767,0.000642480852548033
1740933578870510600,1.412510498046875,0.00037166476249694824,-0.0025274502113461494,0.0007979183574207127
1740933578880477700,1.422477783203125,-0.0013439436443150043,-0.0009460654109716415,-0.0011837397469207644
1740933578890444800,1.43244482421875,-0.002407468156889081,-0.000757352914661169,-0.0017611950170248747
1740933578900410600,1.44241064453125,-0.0022958817426115274,-0.0011102217249572277,0.0008516322704963386
1740933578910377700,1.452377685546875,0.0013087891275063157,-0.0010084896348416805,0.001747956732288003
1740933578920344600,1.462344482421875,-0.00003184610977768898,0.0005358774214982986,-0.002778352005407214
1740933578930310700,1.472310546875,-0.0007094589527696371,-0.00027559511363506317,-0.0010456208838149905
1740933578940277500,1.482277587890625,0.0005294437287375331,0.0009803520515561104,-0.001956688240170479
1740933578950243600,1.49224365234375,-0.0018615585286170244,-0.0013073189184069633,-0.0031022450421005487
1740933578960210700,1.502210693359375,-0.00169937196187675,-0.00142183480784297,0.00047145079588517547
1740933578970177500,1.512177490234375,-0.0004077455960214138,-0.0006468901410698891,0.0006937255384400487
1740933578980143900,1.522143798828125,-0.0005297183524817228,0.004364379681646824,0.0013411400141194463
1740933578990110700,1.53211083984375,-0.001703932648524642,-0.0030038203112781048,-0.00042438096716068685
1740933579000077800,1.542077880859375,0.001399449072778225,0.0004588216543197632,-0.001113074366003275
1740933579010043600,1.552043701171875,0.00035877630580216646,0.0013011125847697258,0.0010804301127791405
1740933579020010800,1.5620107421875,-0.0014955827500671148,-0.0008272859267890453,0.0019824428018182516
1740933579029976600,1.5719765625,0.001417395193129778,0.0006677247583866119,0.001752773649059236
1740933579039943700,1.581943603515625,-0.000005798181518912315,0.0009769182652235031,-0.0025634116027504206
1740933579049910800,1.591910888671875,0.0013233099598437548,-0.0017660572193562984,-0.0002667527587618679
1740933579059876600,1.601876708984375,-0.001680469373241067,-0.0006773569621145725,-0.0019567946437746286
1740933579069843700,1.61184375,0.0012584179639816284,0.00005820300430059433,0.0010053712176159024
1740933579079810600,1.621810546875,0.00021685566753149033,0.003998350352048874,-0.00048759684432297945
1740933579089776600,1.631776611328125,0.0002789690624922514,0.0010732794180512428,-0.0041679819114506245
1740933579099743500,1.641743408203125,-0.0005391540471464396,0.001801920123398304,0.0006933524273335934
1740933579109709800,1.651709716796875,-0.0012087838258594275,0.002397347241640091,-0.00025229231687262654
1740933579119676700,1.6616767578125,-0.0007379369344562292,0.00029797665774822235,0.0017866237321868539
1740933579129643800,1.671643798828125,0.00022984750103205442,0.0005014808848500252,0.002687717555090785
1740933579139609600,1.681609619140625,0.0030722394585609436,0.0012556882575154305,-0.002667100401595235
1740933579149576700,1.69157666015625,-0.0016788763459771872,0.0007350007072091103,-0.0007179591339081526
1740933579159543800,1.701543701171875,-0.000533717218786478,0.0003986433148384094,0.0027939514257013798
1740933579169509600,1.711509521484375,0.000018444610759615898,0.002065647393465042,-0.0006987975211814046
1740933579179476700,1.721476806640625,0.0006767780287191272,0.00006321631371974945,0.0019268130417913198
1740933579189442600,1.731442626953125,-0.0030720545910298824,0.003982244990766048,-0.0003487016656436026
1740933579199409700,1.74140966796875,0.0009945923229679465,0.0000444948673248291,-0.0012717533390969038
1740933579209376500,1.75137646484375,-0.00041814823634922504,0.00028478261083364487,0.0007728668279014528
1740933579219342600,1.761342529296875,-0.0012192272115498781,-0.0014454731717705727,0.0015465151518583298
1740933579229309700,1.771309814453125,0.0013385179918259382,0.0017561418935656548,0.0009886203333735466
1740933579239276500,1.781276611328125,-0.0002303500659763813,0.002455487847328186,-0.0008763914229348302
1740933579249243000,1.791242919921875,0.0009479462169110775,0.00040251947939395905,-0.0005478555685840547
1740933579259209700,1.801209716796875,0.0015966922510415316,0.001492551527917385,-0.003517812816426158
1740933579269175800,1.81117578125,0.0013587984722107649,-0.0005879411473870277,-0.0007296896073967218
1740933579279142700,1.821142578125,-0.0006185986567288637,0.001385727897286415,-0.0021094733383506536
1740933579289109800,1.83110986328125,0.000007364898920059204,0.0031281420961022377,-0.0011305519146844745
1740933579299075600,1.84107568359375,0.00038633274380117655,-0.0002450179308652878,-0.0009459948632866144
1740933579309042700,1.851042724609375,-0.000588942551985383,0.0007859291508793831,-0.0008035615319386125
1740933579319008500,1.861008544921875,0.0007676717359572649,-0.0000652167946100235,0.00024599023163318634
1740933579328975600,1.8709755859375,-0.0006777378730475903,-0.0014288141392171383,-0.0011555592063814402
1740933579338942700,1.880942626953125,0.0013140402734279633,-0.0003555603325366974,-0.0004732573579531163
1740933579348908500,1.890908447265625,-0.0012135396245867014,-0.0008502872660756111,-0.00012259677168913186
1740933579358875600,1.900875732421875,0.00036491581704467535,-0.00001751631498336792,0.0004624997091013938
1740933579368842500,1.910842529296875,0.000846268143504858,0.0017013149335980415,-0.004072325769811869
1740933579378808800,1.920808837890625,0.000363969593308866,-0.0006609093397855759,-0.00013351032976061106
1740933579388775700,1.930775634765625,0.0008733401773497462,-0.001375147607177496,-0.000953794689849019
1740933579398741800,1.94074169921875,-0.0012433403171598911,0.0006704265251755714,-0.0012312959879636765
1740933579408708600,1.95070849609375,-0.0009735515341162682,0.0011844541877508163,-0.00003639163332991302
1740933579418675700,1.96067578125,0.00076442735735327,0.00017165392637252808,0.0004437763418536633
1740933579428641800,1.970641845703125,-0.0016807434149086475,0.002694088965654373,-0.0027078804560005665
1740933579438608600,1.980608642578125,-0.001143850153312087,0.0002466440200805664,0.0005121476133354008
1740933579448575700,1.99057568359375,0.00008213287219405174,-0.0011493018828332424,0.0004123926628381014
1740933579458541600,2.00054150390625,-0.0005607542116194963,-0.00285132834687829,0.0007490162388421595
1740933579468508700,2.0105087890625,0.0015319723170250654,0.00038818735629320145,-0.0008058686507865787
1740933579478474500,2.020474609375,0.001027835882268846,-0.0010216902010142803,-0.002747845835983753
1740933579488441600,2.030441650390625,0.00020942557603120804,-0.000006443820893764496,-0.0005158947315067053
1740933579498408700,2.04040869140625,0.002323975320905447,0.002644200809299946,0.002602400491014123
1740933579508374800,2.050374755859375,-0.0020720744505524635,0.0025420980527997017,0.0032323282212018967
1740933579518342000,2.060341796875,0.0014741909690201283,-0.0002211984246969223,0.0014283028431236744
1740933579528307700,2.0703076171875,0.0012896693078801036,-0.00027295760810375214,-0.0006102611660026014
1740933579538274800,2.08027490234375,0.0011144333984702826,0.001984603703022003,-0.0014140031998977065
1740933579548241700,2.09024169921875,-0.0012804511934518814,0.002323306165635586,0.0013435677392408252
1740933579558207700,2.100207763671875,0.000029025133699178696,0.0005509722977876663,-0.0015089440857991576
1740933579568174600,2.110174560546875,-0.0009233355522155762,0.0015684524551033974,-0.001602519885636866
1740933579578140700,2.120140625,-0.0003520876634865999,-0.000020922161638736725,-0.00037160675856284797
1740933579588107500,2.130107421875,0.0011832148302346468,-0.0002720542252063751,0.0010609078453853726
1740933579598074600,2.14007470703125,-0.000018936116248369217,-0.0025796834379434586,-0.0038720653392374516
1740933579608040700,2.150040771484375,0.0009785396978259087,0.0014794105663895607,0.001807708409614861
1740933579618007600,2.160007568359375,-0.0023951525799930096,-0.0013339528813958168,-0.0009864801540970802
1740933579627974700,2.169974609375,0.00014451425522565842,0.00022038724273443222,0.0022270199842751026
1740933579637940700,2.179940673828125,-0.0009007765911519527,0.00016366131603717804,0.0003699976659845561
1740933579647907800,2.189907958984375,0.00014372309669852257,-0.0020527527667582035,-0.0008523720316588879
1740933579657873700,2.199873779296875,-0.0019915993325412273,-0.0011691157706081867,-0.0004057598998770118
1740933579667840800,2.2098408203125,0.0011445218697190285,-0.0012883045710623264,-0.0006949796807020903
1740933579677807900,2.219807861328125,-0.0008256847504526377,0.0005870936438441277,-0.002797545399516821
1740933579687773700,2.229773681640625,0.0005153812235221267,-0.00006696674972772598,0.0022260723635554314
1740933579697740800,2.23974072265625,0.0011462841648608446,-0.003570089116692543,0.0012561490293592215
1740933579707707600,2.249707763671875,0.0007727079791948199,0.0013466719537973404,0.0006229000864550471
1740933579717673700,2.259673828125,0.00018947571516036987,0.0018097953870892525,-0.0012863201554864645
1740933579727640600,2.269640625,0.0003421260043978691,-0.001450168900191784,-0.00021378313249442726
1740933579737606700,2.279606689453125,0.001198332291096449,0.0006630495190620422,0.0002767711121123284
1740933579747573500,2.289573486328125,-0.0016118537168949842,0.0009909328073263168,0.0007046456448733807
1740933579757540600,2.29954052734375,-0.0012315541971474886,0.00007187575101852417,0.00040157794137485325
1740933579767507000,2.3095068359375,0.0007098544156178832,-0.0000027026981115341187,0.0006118071032688022
1740933579777473800,2.319473876953125,-0.00027205306105315685,0.0013267472386360168,0.0019929225090891123
1740933579787439900,2.32943994140625,0.0014668733347207308,0.0017727147787809372,0.0012162565253674984
1740933579797406700,2.33940673828125,0.000616525998339057,-0.001837998628616333,0.0005139809800311923
1740933579807373800,2.349373779296875,-0.0011235158890485764,0.0005681551992893219,0.0030575846321880817
1740933579817339600,2.359339599609375,-0.0024367207661271095,0.0028813770040869713,0.000373384595150128
1740933579827306800,2.369306640625,0.0001111107412725687,0.0005131876096129417,0.0014453422045335174
1740933579837273900,2.37927392578125,-0.0013709382619708776,-0.0002671182155609131,-2.2165477275848389e-7
1740933579847239700,2.38923974609375,-0.0013496498577296734,0.0005887569859623909,0.0010993422474712133
1740933579857206800,2.399206787109375,-0.0009629589039832354,0.0010811751708388329,0.0006644480163231492
1740933579867172600,2.409172607421875,-0.0005085144657641649,0.0005259355530142784,-0.0017802849179133773
1740933579877139700,2.4191396484375,-0.0008400778751820326,0.0013166284188628197,-0.00012406511814333498
1740933579887106600,2.4291064453125,-0.0001842223573476076,0.004483799450099468,-0.0016158611979335546
1740933579897073000,2.439072998046875,-0.0003506699576973915,0.0011290153488516808,0.0020286748185753822
1740933579907039700,2.449039794921875,-0.0012286973651498556,-0.0014872034080326557,0.0011259615421295166
1740933579917005800,2.459005859375,-0.0005293511785566807,0.0007314756512641907,-0.00045036355732008815
1740933579926972700,2.46897265625,0.0008439328521490097,-0.0012649926356971264,0.0021529223304241896
1740933579936939800,2.478939697265625,0.002347287256270647,-0.0009968122467398643,-0.0014263663906604052
1740933579946905600,2.488905517578125,0.0015448805643245578,-0.0002555660903453827,0.0016803342150524259
1740933579956872700,2.498872802734375,-0.0031598596833646297,0.004700843244791031,-0.002778862603008747
1740933579966839800,2.50883984375,-0.00016179541125893593,-0.0024848305620253086,0.0006932521355338395
1740933579976805600,2.5188056640625,-0.0008920342661440372,0.00236558448523283,0.001212302129715681
1740933579986772700,2.528772705078125,-0.0002970695495605469,-0.0020608785562217236,0.0019586796406656504
1740933579996738600,2.538738525390625,0.0020867260172963142,0.0003426242619752884,0.0011557365069165826
1740933580006705700,2.54870556640625,0.0002333410084247589,0.0013954481109976768,0.0022241135593503714
1740933580016672500,2.558672607421875,-0.0003749250900000334,0.0014796042814850807,-0.0015980553580448031
1740933580026638800,2.568638916015625,0.00006615067832171917,0.0011074012145400047,-0.00007754724356345832
1740933580036606000,2.57860595703125,-0.0000598167534917593,0.0014461558312177658,-0.003975616302341223
1740933580046571800,2.58857177734375,-0.0005333246663212776,0.0001973295584321022,0.00003458486753515899
1740933580056539000,2.598538818359375,-0.0009346629958599806,-0.0016604913398623466,0.001955256564542651
1740933580066505700,2.608505615234375,-0.0007335410919040442,-0.0006759399548172951,0.0006115248543210328
1740933580076471800,2.618471923828125,-0.000905314926058054,0.00024364981800317764,0.0017689347732812166
1740933580086438700,2.628438720703125,0.0013419145252555609,0.001120448112487793,0.0006778936367481947
1740933580096405800,2.63840576171875,-0.0006179055199027061,0.0010056663304567337,-0.0012805949663743377
1740933580106371600,2.64837158203125,-0.0000540104229003191,0.0001223227009177208,-0.00004231263301335275
1740933580116338700,2.658338623046875,0.0006709020817652345,-0.0007322859019041061,0.00020616032998077571
1740933580126304500,2.668304443359375,0.000053759198635816574,0.002488190308213234,0.0005572524387389421
1740933580136271600,2.678271728515625,0.001149916322901845,-0.0008937576785683632,-0.0035378902684897184
1740933580146238700,2.68823876953125,0.00013378041330724955,0.0005973717197775841,-0.0018752405885607004
1740933580156204800,2.698204833984375,0.0007606885628774762,-0.002251677680760622,-0.00006588888936676085
1740933580166172000,2.708171875,-0.0022471521515399218,0.0026017827913165092,-0.0014870211016386747
1740933580176137700,2.7181376953125,-0.0002535097301006317,-0.0006691114977002144,0.0003244609688408673
1740933580186104800,2.728104736328125,0.0008953347569331527,0.002284499816596508,0.0005638048751279712
1740933580196071700,2.73807177734375,0.0023930964525789022,-0.0006694784387946129,-0.0010537991765886545
1740933580206037800,2.748037841796875,-0.0009352709166705608,0.0024331845343112946,-0.002779579721391201
1740933580216004600,2.758004638671875,0.0005768719129264355,0.00147178303450346,-0.0020405524410307407
1740933580225970700,2.767970703125,0.002597908955067396,0.00041955243796110153,0.0009455886902287602
1740933580235937800,2.777937744140625,0.0006916183046996593,0.0006240829825401306,0.0008648949442431331
1740933580245904600,2.787904541015625,-0.00021969550289213657,0.0032740626484155655,-0.0011123165022581816
1740933580255870700,2.79787060546875,-0.0005592484958469868,-0.00016807299107313156,0.0022166348062455654
1740933580265837600,2.807837646484375,0.0007551598828285933,0.00014517642557621002,0.00008943842840380967
1740933580275804700,2.8178046875,-0.001714655663818121,0.000674612820148468,0.00043884513434022665
1740933580285770800,2.827770751953125,-0.0013069184496998787,-0.000531928613781929,-0.002206288743764162
1740933580295737900,2.83773779296875,-0.0004765449557453394,-0.0037074824795126915,0.002623087726533413
1740933580305703700,2.84770361328125,0.0015580595936626196,0.0010713031515479088,-0.0007046137470752001
1740933580315670800,2.8576708984375,-0.002511250786483288,0.001282491721212864,0.002222999231889844
1740933580325638000,2.867637939453125,0.00016108248382806778,0.0031682662665843964,-0.0003100712492596358
1740933580335603700,2.877603759765625,0.00040529435500502586,0.0010103071108460426,-0.0005526852328330278
1740933580345570800,2.88757080078125,0.00035055435728281736,-0.00037552788853645325,0.00185769097879529
1740933580355536600,2.89753662109375,0.0000416275579482317,0.0005770847201347351,0.001956227933987975
1740933580365503700,2.907503662109375,-0.00045008608140051365,-0.0002225283533334732,0.0010968721471726894
1740933580375470600,2.917470703125,0.0024559551384299994,0.0030350498855113983,0.000473692431114614
1740933580385436700,2.927436767578125,-0.00022267713211476803,0.0007394393905997276,0.0003168534312862903
1740933580395403500,2.937403564453125,0.001018089591525495,-0.0014052046462893486,-0.002948448294773698
1740933580405369900,2.947369873046875,-0.001790098613128066,0.00007530767470598221,-0.00027556149871088564
1740933580415336700,2.957336669921875,0.00006559211760759354,0.002615697681903839,-0.0029983774293214083
1740933580425303800,2.9673037109375,-0.00030251964926719666,0.0018497435376048088,-0.000058133737184107304
1740933580435270000,2.977269775390625,0.0009006964974105358,-0.0025764298625290394,-0.001169737195596099
1740933580445236700,2.98723681640625,0.0013070902787148952,-0.0014872374013066292,0.0007125720148906112
1740933580455203800,2.997203857421875,0.001177926897071302,0.0003809705376625061,-0.0003393765655346215
1740933580465169700,3.007169677734375,0.0015040866564959288,-0.00015666242688894272,0.0022126203402876854
1740933580475136800,3.01713671875,-0.00033935345709323883,0.00012909434735774994,0.000895953387953341
1740933580485102600,3.0271025390625,0.00009091896936297417,-0.00014244206249713898,0.0010908384574577212
1740933580495069700,3.037069580078125,-0.0016273525543510914,0.0002807341516017914,0.00017471096361987293
1740933580505036800,3.047036865234375,0.0002492200583219528,-0.000012205913662910461,0.0006650222931057215
1740933580515002600,3.057002685546875,-0.00045784912072122097,0.0015018004924058914,0.0011079059913754463
1740933580524969700,3.0669697265625,0.0008722773054614663,0.0013113776221871376,-0.0010279812850058079
1740933580534936600,3.0769365234375,-0.0018257710617035627,-0.00018798280507326126,-0.0010913645382970572
1740933580544903000,3.08690283203125,0.0013177999062463641,0.0015244139358401299,-0.0012752182083204389
1740933580554869800,3.096869873046875,-0.00036478531546890736,0.0030996734276413918,-0.0014129036571830511
1740933580564835800,3.1068359375,0.0003496265271678567,-0.0022954829037189484,-0.00019493931904435158
1740933580574802700,3.116802734375,-0.00040298281237483025,0.00019324105232954025,-0.0026314654387533665
1740933580584769800,3.126769775390625,0.001103164628148079,0.000028153881430625916,0.0008336303289979696
1740933580594735600,3.136735595703125,0.0013252722565084696,-0.00134683633223176,-0.0003536069707479328
1740933580604703700,3.146703857421875,0.0028263190761208534,0.002531234174966812,-0.0006745109567418694
1740933580614669600,3.156669677734375,0.0006105691427364945,-0.0015351464971899986,-0.003381081623956561
1740933580624636700,3.16663671875,-0.00024422304704785347,0.0010851314291357994,-0.0009916089475154877
1740933580634603500,3.176603515625,-0.0013893824070692062,0.0009066993370652199,-0.0008954688673838973
1740933580644569600,3.186569580078125,0.00008933898061513901,0.0034185005351901054,-0.001671958016231656
1740933580654536400,3.196536376953125,0.002713617868721485,-0.0010952907614409924,0.002017585327848792
1740933580664502500,3.20650244140625,0.0007788477232679725,-0.00034054089337587357,-0.0007579523953609169
1740933580674469400,3.216469482421875,0.0011455649510025978,-0.0012377598322927952,0.0005965313175693154
1740933580684436500,3.2264365234375,-0.0005957228131592274,0.0006994036957621574,0.00006694192416034639
1740933580694402600,3.236402587890625,-0.0017568611074239016,0.0035167625173926353,0.00036494966479949653
1740933580704369700,3.24636962890625,-0.0027103759348392487,-6.891787052154541e-8,0.00031055614817887545
1740933580714336500,3.25633642578125,0.0005674428539350629,0.0011741193011403084,0.0009601011988706887
1740933580724302600,3.266302490234375,-0.0030494045931845903,0.0008064340800046921,0.0006885906914249063
1740933580734269700,3.276269775390625,-0.0009148807730525732,0.0023420127108693123,-0.0017087869346141815
1740933580744235500,3.286235595703125,0.0014463032130151987,-0.0015693078748881817,-0.0005026365397498012
1740933580754202600,3.29620263671875,-0.0012677242048084736,-0.0014950055629014969,-0.0014728261157870293
1740933580764169500,3.30616943359375,-0.00014479481615126133,-0.0022700452245771885,0.00002931745257228613
1740933580774135600,3.316135498046875,0.0009114149725064635,0.00046848319470882416,0.004676267504692078
1740933580784102400,3.326102294921875,-0.0032287458889186382,0.0018480941653251648,0.00019013244309462607
1740933580794069500,3.336069580078125,-0.0006896879058331251,0.0008209133520722389,0.0013805654598399997
1740933580804035600,3.34603564453125,-0.0016307425685226917,0.000890776515007019,-0.000024693028535693884
1740933580814002400,3.35600244140625,0.0004345388151705265,0.0010761329904198647,-0.00023162065190263093
1740933580823968800,3.36596875,-0.0022922565694898367,-0.001546781975775957,-0.0026096017099916935
1740933580833935600,3.375935546875,0.0006571944104507565,0.0018151924014091492,0.0003196092147845775
1740933580843902500,3.38590234375,-0.0005032289773225784,-0.0016414700075984001,0.0018291077576577663
1740933580853868500,3.39586865234375,-0.00017672544345259666,-0.0012899325229227543,0.0033527021296322346
1740933580863835600,3.405835693359375,-0.000342649407684803,0.0014645373448729515,0.001148396753706038
1740933580873801500,3.415801513671875,-0.00020576291717588902,0.00032230746001005173,-0.00003724260022863746
1740933580883768600,3.4257685546875,-0.0005112690851092339,0.003535158932209015,0.0009085911442525685
1740933580893735700,3.435735595703125,-0.0006255186162889004,-0.00041910260915756226,0.0036050418857485056
1740933580903701500,3.445701416015625,0.0006358245154842734,-0.0031866244971752167,0.0015412288485094905
1740933580913668600,3.455668701171875,-0.00041346088983118534,-0.0009823259897530079,0.0007742384914308786
1740933580923635500,3.465635498046875,0.0001806790241971612,0.002151236869394779,-0.000888745067641139
1740933580933601500,3.4756015625,0.0036603654734790325,0.00021751504391431808,0.001598647446371615
1740933580943568400,3.485568359375,-0.00017846841365098953,0.001954915001988411,0.0027290445286780596
1740933580953534700,3.49553466796875,0.000888127600774169,0.00012612156569957733,-0.003436439670622349
1740933580963501600,3.50550146484375,0.0011971902567893267,0.0014921287074685097,0.0017709445673972368
1740933580973468400,3.515468505859375,-0.00009470921941101551,0.0015280814841389656,0.0011208669748157263
1740933580983434500,3.5254345703125,-0.0008798916824162006,0.0003185868263244629,-0.0004420875629875809
1740933580993401600,3.535401611328125,-0.0003517868462949991,0.0008741216734051704,0.0024631547275930643
1740933581003367700,3.54536767578125,0.0010427460074424744,0.002143765799701214,0.0008116171811707318
1740933581013334500,3.55533447265625,-0.0016009740065783262,0.002524064853787422,-0.0001162281259894371
1740933581023301600,3.565301513671875,0.0008826642297208309,0.0005741501227021217,0.0004832301347050816
1740933581033267500,3.575267333984375,-0.000004434725269675255,0.0013936050236225128,-0.0008326377719640732
1740933581043234600,3.585234619140625,-0.00113780633546412,-0.0008131754584610462,-0.00017541120178066194
1740933581053201400,3.595201416015625,0.0003527648514136672,-0.00022967718541622162,-0.0006840749410912395
1740933581063167500,3.60516748046875,0.00017042248509824276,0.0022147633135318756,-0.00003381638089194894
1740933581073134600,3.615134521484375,0.0013099891366437078,-0.0020079445093870163,-0.003360637230798602
1740933581083100700,3.6251005859375,-0.00041503459215164185,-0.0013031377457082272,-0.00025854044361039996
1740933581093067500,3.635067626953125,-0.0006749590393155813,0.0011134147644042969,-0.0004191290645394474
1740933581103034600,3.64503466796875,0.00044984754640609026,-0.0005448972806334496,-0.0015214080922305584
1740933581113000700,3.655000732421875,-0.0004329902585595846,-0.0004588775336742401,-0.0001773107360349968
1740933581122967600,3.664967529296875,0.0002993909874930978,0.003184739500284195,-0.0003304876445326954
1740933581132934700,3.6749345703125,-0.0008353819139301777,-0.0026340014301240444,0.0016375883715227246
1740933581142900500,3.684900390625,0.0014633771497756243,-0.0017529274336993694,0.0008587689371779561
1740933581152867600,3.69486767578125,-0.0014882043469697237,0.00044311489909887314,-0.0009045099141076207
1740933581162833400,3.70483349609375,-0.000012567965313792229,0.00008463673293590546,0.0009699250804260373
1740933581172800500,3.714800537109375,0.0014465779531747103,0.000960017554461956,0.0010245197918266058
1740933581182767600,3.724767578125,-0.0016320997383445501,0.0038346610963344574,-0.0005149886710569263
1740933581192733400,3.7347333984375,-0.00086351134814322,0.00165566336363554,-0.0014526876620948315
1740933581202700500,3.744700439453125,0.001021376927383244,-0.0025605512782931328,-0.0019490300910547376
1740933581212666600,3.75466650390625,0.0022088803816586733,-0.002262277528643608,-0.0003580576740205288
1740933581222633700,3.7646337890625,0.0012282885145395994,-0.00005364324897527695,-0.0002453771885484457
1740933581232600600,3.7746005859375,0.00041922018863260746,0.0013751434162259102,-0.0015066502382978797
1740933581242566700,3.784566650390625,-0.0025758363772183657,0.0007164310663938522,-0.0013606126885861158
1740933581252533500,3.794533447265625,0.0009776194347068667,0.0023111319169402122,0.0005597927956841886
1740933581262500600,3.80450048828125,0.00011019897647202015,-0.0005176952108740807,0.00022801701561547816
1740933581272466700,3.814466796875,0.0010753286769613624,-0.0011376794427633286,-0.0006409724592231214
1740933581282433500,3.82443359375,-0.0006634946912527084,0.0007899422198534012,0.0010060016065835953
1740933581292399600,3.834399658203125,-0.00020756153389811516,-0.0024993284605443478,-0.0018819301621988416
1740933581302366500,3.844366455078125,0.00041812623385339975,0.0012444835156202316,0.0020620638970285654
1740933581312333600,3.85433349609375,0.0010341154411435127,-0.00003995932638645172,-0.0010655524674803019
1740933581322299400,3.86429931640625,-0.0005675556603819132,-0.0017268946394324303,-0.0017725540092214942
1740933581332266500,3.8742666015625,-0.0008722213096916676,0.0008430555462837219,0.002210735809057951
1740933581342233600,3.884233642578125,-0.0004005350638180971,-0.0014155348762869835,-0.0008381555089727044
1740933581352199700,3.89419970703125,0.0013949681306257844,0.0010433616116642952,-0.000619776314124465
1740933581362166500,3.90416650390625,0.0006689069559797645,-0.0009265779517591,0.00006534421117976308
1740933581372132600,3.914132568359375,0.00021137588191777468,-0.00011351518332958221,-0.0012832805514335632
1740933581382099700,3.924099609375,-0.0018961078021675348,-0.0016884724609553814,-0.0010414974531158805
1740933581392066600,3.934066650390625,0.0003912813263013959,0.001392538659274578,0.0009694553446024656
1740933581402032600,3.94403271484375,-0.0002709412947297096,0.00046724826097488403,0.0010697869583964348
1740933581411999500,3.95399951171875,-0.000666953157633543,0.0019026920199394226,-0.0010298492852598429
1740933581421966600,3.963966552734375,0.0024322858080267906,-0.0006668632850050926,0.001693720929324627
1740933581431932400,3.973932373046875,0.0011726105585694313,-0.0006362367421388626,-0.00048261418123729527
1740933581441899500,3.9838994140625,-0.0002760638017207384,-0.0009258082136511803,-0.0008031029719859362
1740933581451865600,3.993865478515625,-0.002549072029069066,0.0011298861354589462,0.0006214219029061496
1740933581461832400,4.00383251953125,0.00031823222525417805,-0.0026680883020162582,0.00003317292430438101
1740933581471799600,4.013799560546875,0.0007275601383298635,-0.0009756493382155895,-0.000248056894633919
1740933581481765600,4.023765625,-0.00013036676682531834,0.0011012014001607895,0.0005074256914667785
1740933581491732500,4.033732421875,0.0011865663109347224,0.00028920359909534454,-0.0003426553448662162
1740933581501698600,4.043698486328125,0.0004140272503718734,-0.0016498728655278683,0.0006096942815929651
1740933581511665700,4.053665771484375,-0.000628866720944643,0.0020681656897068024,-0.00279116234742105
1740933581521632800,4.0636328125,-0.0006321377586573362,0.000921628437936306,-0.0005782046937383711
1740933581531598600,4.0735986328125,-0.001262241741642356,0.0005495846271514893,-0.0002993717207573354
1740933581541565700,4.083565673828125,-0.0007266299799084663,-0.0017026481218636036,0.001867898041382432
1740933581551532500,4.093532470703125,-0.0008571248035877943,-0.0005819899961352348,-0.0015702429227530956
1740933581561498600,4.10349853515625,0.0016225927975028753,-0.0016826405189931393,0.0012302033137530088
1740933581571465500,4.113465576171875,-0.0005012780893594027,0.00019595306366682053,0.00107920216396451
1740933581581431600,4.123431640625,-0.0007142852991819382,-0.0008562328293919563,0.0032027349807322025
1740933581591398400,4.1333984375,-0.0006503693293780088,-0.0004996359348297119,0.0011305292136967182
1740933581601365000,4.143364990234375,0.00027384061831980944,-0.000645994208753109,0.0004988085711374879
1740933581611331300,4.153331298828125,-0.0021917137783020735,-0.000357041135430336,-0.0008420930244028568
1740933581621298200,4.163298095703125,-0.00025658239610493183,0.00005135685205459595,0.0008762631332501769
1740933581631264300,4.17326416015625,-0.0002579139545559883,-0.00044745299965143204,0.0022587100975215435
1740933581641231000,4.183231201171875,-0.0007142112590372562,-0.001152037177234888,-0.00035455593024380505
1740933581651198200,4.1931982421875,0.0003672983730211854,0.0006450638175010681,-0.00047892556176520884
1740933581661164300,4.203164306640625,-0.0004118476063013077,0.0012912973761558533,0.0018581782933324575
1740933581671131100,4.213131103515625,-0.0014669918455183506,0.0018755951896309853,0.0023639127612113953
1740933581681098200,4.22309814453125,0.0006206576945260167,0.0016924822703003883,0.0000544808863196522
1740933581691064000,4.23306396484375,0.0004933585878461599,0.0017233751714229584,0.0009572925046086311
1740933581701031200,4.24303125,0.0013430255930870771,-0.0014683697372674942,0.0008894611382856965
1740933581710997000,4.2529970703125,-0.0005411608144640923,-0.0006041740998625755,-0.001714844023808837
1740933581720964000,4.262964111328125,0.0000620339997112751,0.003118402324616909,-0.0003122864873148501
1740933581730931200,4.27293115234375,-0.0015931206289678812,0.0005591046065092087,0.001753527671098709
1740933581740897300,4.282897216796875,0.00035116029903292656,0.00198438111692667,-0.002860596403479576
1740933581750864400,4.292864501953125,-0.0011375467292964458,-0.0004806406795978546,0.0010595767525956035
1740933581760830200,4.302830322265625,0.0005941091803833842,-0.0036055520176887512,0.0007674877997487783
1740933581770797300,4.31279736328125,0.0006753356428816915,0.0003505740314722061,-0.002009124029427767
1740933581780764200,4.32276416015625,0.0013415033463388681,-0.001617287751287222,0.000578283506911248
1740933581790730200,4.332730224609375,-0.0009711857419461012,0.0006421385332942009,-0.0014097662642598152
1740933581800697000,4.342697021484375,0.0016914613079279661,-0.00015540793538093567,0.0010545899858698249
1740933581810664200,4.352664306640625,-0.00018739886581897736,-0.002079008612781763,0.0030599504243582487
1740933581820630000,4.362630126953125,-0.001585099846124649,0.0002524321898818016,-0.0006163447396829724
1740933581830597000,4.37259716796875,-0.00008307700045406818,0.00231797993183136,-0.0005833215545862913
1740933581840563200,4.382563232421875,0.0009880216093733907,-0.0016514630988240242,0.0006117796874605119
1740933581850530000,4.392530029296875,0.002307618036866188,-0.00040989741683006287,0.0007822219631634653
1740933581860497200,4.4024970703125,0.000922771985642612,-0.00014807377010583878,-0.000322886451613158
1740933581870463200,4.412463134765625,-0.0007752594538033009,-0.000612528994679451,0.0022819514852017164
1740933581880430300,4.422430419921875,-0.00123464479111135,-0.0011282656341791153,-0.00010948631097562611
1740933581890396200,4.432396240234375,0.00016884109936654568,0.0010051922872662544,0.00018479296704754233
1740933581900363300,4.44236328125,0.002337637823075056,-0.0004489859566092491,-0.0008942951099015772
1740933581910330400,4.452330322265625,0.00043640704825520515,-0.0014854883775115013,0.001438634004443884
1740933581920296200,4.462296142578125,-0.0007458948530256748,0.0007847324013710022,-0.000005675683496519923
1740933581930263300,4.47226318359375,-0.00044975150376558304,0.0005285358056426048,-0.0007167396834120154
1740933581940230100,4.482230224609375,-0.0008392338640987873,0.0001330450177192688,-0.0008880612440407276
1740933581950196200,4.4921962890625,0.0011874318588525057,-0.0014978749677538872,0.0011412675958126783
1740933581960163000,4.5021630859375,-0.0013733736705034971,0.00027685612440109253,-0.0019704310689121485
1740933581970129200,4.512129150390625,0.000525193870998919,-0.00047042686492204666,-0.0011371279833838344
1740933581980096000,4.522095947265625,-0.00015554577112197876,0.0008034259080886841,0.0003321873373351991
1740933581990063000,4.53206298828125,-0.0003246564883738756,-0.0016024736687541008,0.000927137560211122
1740933582000029200,4.542029296875,0.001128689618781209,0.0004467479884624481,-0.0020166411995887756
1740933582009996300,4.551996337890625,-0.0004263301379978657,-0.0007846970111131668,-0.002579367021098733
1740933582019962000,4.561962158203125,0.00041513447649776936,-0.0013219872489571571,0.0008389278082177043
1740933582029929200,4.57192919921875,0.001410624012351036,-0.0012868335470557213,0.0030296442564576864
1740933582039896300,4.581896240234375,0.00018258369527757168,0.0009104162454605103,0.0009578592143952847
1740933582049862100,4.591862060546875,-0.0008121069986373186,-0.0015839003026485443,0.0005416071508079767
1740933582059829200,4.601829345703125,-0.0013930483255535364,0.002177954651415348,0.0009939557639881968
1740933582069795000,4.611795166015625,-0.0017661573365330696,0.00027086492627859116,0.00024134648265317082
1740933582079762200,4.62176220703125,0.0003600053023546934,0.0000698016956448555,-0.0008093251381069422
1740933582089729000,4.63172900390625,0.000593564473092556,-0.0004838695749640465,-0.0005209047812968493
1740933582099695000,4.641695068359375,0.0005524851148948073,0.0009325854480266571,-0.0013068311382085085
1740933582109662200,4.651662109375,-0.0006219688802957535,0.0015168823301792145,-0.0000823096779640764
1740933582119629000,4.661629150390625,-0.0005917404778301716,-0.0004777936264872551,0.0007991902530193329
1740933582129595400,4.671595458984375,0.001926544588059187,0.0005677631124854088,0.0006937291473150253
1740933582139562200,4.681562255859375,0.0008465304272249341,0.0012033767998218536,0.002029882976785302
1740933582149528300,4.6915283203125,-0.00047040265053510666,0.0018696999177336693,0.00039044098230078816
1740933582159495200,4.7014951171875,-0.0024600441101938486,-0.003064498770982027,0.00043230337905697525
1740933582169462300,4.711462158203125,0.0005365448305383325,-0.00029001757502555847,0.003315974259749055
1740933582179428000,4.721427978515625,-0.0006275172345340252,0.000853036530315876,-0.0024154866114258766
1740933582189395200,4.731395263671875,0.00003188150003552437,0.00006367545574903488,-0.0019321228610351682
1740933582199361000,4.741361083984375,-0.0010867503006011248,0.0004845019429922104,0.001059303991496563
1740933582209328000,4.751328125,-0.0015035350807011127,0.0012006256729364395,-0.0002301986824022606
1740933582219295200,4.761295166015625,-0.0033019876573234797,0.0009555211290717125,0.0007387413643300533
1740933582229261000,4.771260986328125,0.001151616801507771,0.0009432705119252205,-0.0019372028764337301
1740933582239228200,4.781228271484375,-0.0006745806895196438,0.002866447903215885,0.000024225766537711024
1740933582249194200,4.7911943359375,-0.0004064005333930254,-0.0014547975733876228,0.0019326468463987112
1740933582259161300,4.801161376953125,-0.0011831177398562431,0.0011646095663309097,0.0026856157928705215
1740933582269128200,4.811128173828125,-0.0018808662425726652,0.0033215032890439034,-0.0004435984883457422
1740933582279094300,4.82109423828125,0.0015204595401883125,-0.0013544773682951927,0.0019821615424007177
1740933582289061000,4.83106103515625,-0.0009376381058245897,0.0012594154104590416,0.0026863012462854385
1740933582299028200,4.8410283203125,-0.000739778857678175,0.0013459045439958572,-0.0029548786114901304
1740933582308994300,4.850994384765625,0.0005609089275822043,-0.002144967205822468,-0.00009837205288931727
1740933582318961200,4.860961181640625,0.0014866937417536974,0.0007569910958409309,0.000417606090195477
1740933582328927200,4.87092724609375,0.0009527299553155899,-0.0004366375505924225,-0.00010517245391383767
1740933582338894000,4.88089404296875,0.0013187966542318463,-0.0005280030891299248,-0.0008451004978269339
1740933582348861200,4.890861083984375,-0.0012801822740584612,0.0010027820244431496,-0.0013588241999968886
1740933582358827000,4.900826904296875,0.002269977470859885,-0.0005462188273668289,-0.00003388317418284714
1740933582368794000,4.910794189453125,-0.0010400654282420874,-0.0004889601841568947,-0.0000908748188521713
1740933582378760200,4.92076025390625,0.0013235805090516806,0.0004070717841386795,-0.0008373729651793838
1740933582388727300,4.930727294921875,-0.0003171931020915508,0.0011040205135941505,-0.0032701706513762474
1740933582398694400,4.9406943359375,0.00016451184637844563,-0.0012039621360599995,0.0014794672606512904
1740933582408660200,4.95066015625,-0.00345791969448328,0.0004410725086927414,-0.0007631806656718254
1740933582418627300,4.96062744140625,0.0005504341097548604,0.00022489763796329498,0.0032488249707967043
1740933582428593200,4.97059326171875,0.00003564497455954552,0.00019666831940412521,0.0020919477101415396
1740933582438560300,4.980560302734375,-0.0001711284276098013,-0.0010931161232292652,0.00039730765274725854
1740933582448527000,4.990527099609375,-0.000002284068614244461,0.0007521882653236389,-0.0006732830661348999
1740933582458493200,5.0004931640625,0.00021082931198179722,0.0011495379731059074,-0.002386415144428611
1740933582468460000,5.0104599609375,0.001052388222888112,-0.0012387847527861595,0.0006764864083379507
1740933582478427100,5.02042724609375,-0.001708743628114462,-0.000056692399084568024,0.001723678084090352
1740933582488393000,5.03039306640625,-0.0001838176976889372,-0.0017398102208971977,-0.0015568037051707506
1740933582498360000,5.040360107421875,-0.0008406811393797398,-0.0020926324650645256,-0.0014296958688646555
1740933582508326400,5.050326416015625,-0.0018636013846844435,-0.0017232517711818218,0.0019791503436863422
1740933582518293200,5.060293212890625,-0.0010512212757021189,-0.00024208612740039825,-0.0010906053939834237
1740933582528260400,5.07026025390625,0.000033750664442777634,-0.0008775163441896439,-0.0019492085557430983
1740933582538226200,5.08022607421875,-0.000318372854962945,0.000823095440864563,-0.0006906551425345242
1740933582548193300,5.090193359375,-0.0012925572227686644,-0.001599049661308527,-0.0025838962756097317
1740933582558159000,5.1001591796875,0.0021661813370883465,-0.0006553856655955315,-0.00009112776024267077
1740933582568126200,5.110126220703125,-0.0048352694138884544,0.0012804660946130753,-0.0014027345459908247
1740933582578093300,5.12009326171875,0.0007676387904211879,0.00020638946443796158,0.004286793526262045
1740933582588059100,5.13005908203125,0.0009005306055769324,-0.00012064725160598755,-0.00012446637265384197
1740933582598026200,5.140026123046875,-0.00010472489520907402,-0.0000356622040271759,-0.0004820290778297931
1740933582607992300,5.149992431640625,-0.00023761671036481857,0.000010676681995391846,-0.0005020027747377753
1740933582617959200,5.159959228515625,-0.0007328165229409933,0.0001808851957321167,-0.0003235053736716509
1740933582627926300,5.16992626953125,-0.0000896630808711052,0.00038728024810552597,0.002151636639609933
1740933582637892400,5.179892333984375,0.0022311438806355,0.0029460573568940163,0.00022359320428222418
1740933582647859500,5.189859375,-0.0013111266307532787,-0.0016806521452963352,-0.00045897497329860926
1740933582657825300,5.1998251953125,0.0014893183251842856,-0.0030445335432887077,-0.0018704852554947138
1740933582667792400,5.20979248046875,0.001121535780839622,0.0021259943023324013,-0.0030239003244787455
1740933582677759500,5.219759521484375,0.0001329521182924509,0.00100044347345829,0.0006022437592037022
1740933582687725300,5.229725341796875,-0.0006183255463838577,0.0008268048986792564,-0.0008177537238225341
1740933582697692400,5.2396923828125,0.0022006332874298096,0.00016801152378320694,0.0005206621717661619
1740933582707659300,5.2496591796875,0.00006744125857949257,0.0005837306380271912,0.002711112145334482
1740933582717625300,5.259625244140625,0.00001822691410779953,0.0012883776798844337,0.00001734792022034526
1740933582727592200,5.26959228515625,0.0002605745103210211,0.0011858465149998665,0.002049339935183525
1740933582737558300,5.279558349609375,-0.0007253650110214949,0.000017333775758743286,-0.000044858927140012383
1740933582747525000,5.289525146484375,-0.0015911587979644537,-0.0011760285124182701,0.00007338542491197586
1740933582757492200,5.2994921875,-0.0016020415350794792,0.003267168067395687,-0.003806104650720954
1740933582767458300,5.309458251953125,0.0010475374292582273,-0.00019707158207893372,0.0019527147524058819
1740933582777425400,5.31942529296875,-0.001029167091473937,-0.00016468483954668045,-0.002073423471301794
1740933582787391200,5.32939111328125,0.0019490458071231842,0.0011413292959332466,0.0010624486021697521
1740933582797358300,5.3393583984375,-0.00018675671890377998,0.000485006719827652,-0.0000654894975014031
1740933582807325400,5.349325439453125,-0.0002823641989380121,0.00040857400745153427,-0.0024106691125780344
1740933582817291300,5.359291259765625,-0.0016450972761958838,-0.0007156003266572952,0.0006206118268892169
1740933582827258400,5.36925830078125,-0.0004562621470540762,-0.001265010330826044,-0.0015759634552523494
1740933582837224200,5.37922412109375,-0.0005661370232701302,0.000225103460252285,0.0011520404368638992
1740933582847191300,5.38919140625,-0.0004998242948204279,-0.0015743942931294441,-0.0017774368170648813
1740933582857158400,5.399158447265625,-0.001158666331321001,-0.0002073226496577263,0.0012739159865304828
1740933582867124200,5.409124267578125,-0.001325646648183465,0.00006964616477489471,0.0021423727739602327
1740933582877091300,5.41909130859375,0.0002738949842751026,-0.00011773966252803802,0.0015467796474695206
1740933582887057400,5.429057373046875,0.001539695425890386,-0.0005369214341044426,0.0006647406844422221
1740933582897024500,5.4390244140625,-0.001094600884243846,-0.0021023694425821304,-0.0007263515144586563
1740933582906991400,5.448991455078125,0.0021999955642968416,0.00012429989874362946,0.0015972563996911049
1740933582916957400,5.45895751953125,0.0006417215336114168,-0.00005236733704805374,0.0022106911055743694
1740933582926924300,5.46892431640625,-0.00035456707701087,-0.0009597060270607471,0.0014998932601884007
1740933582936890400,5.478890380859375,0.001235495787113905,0.001843322068452835,-0.00030754151521250606
1740933582946857200,5.488857177734375,0.00014519761316478252,0.00021107029169797897,0.000775033375248313
1740933582956824300,5.49882421875,0.0011193986283615232,-0.00036696717143058777,-0.00012267217971384525
1740933582966790100,5.5087900390625,-0.0008571995422244072,-0.00029665976762771606,0.00008239122689701617
1740933582976757200,5.51875732421875,0.0007776761194691062,0.0017829500138759613,0.0015872789081186056
1740933582986724400,5.528724365234375,0.0006546380463987589,-0.00019284896552562714,-0.0007096973713487387
1740933582996690200,5.538690185546875,-0.0011808741837739944,0.001350180245935917,-0.0015509072691202164
1740933583006657300,5.5486572265625,-0.0009662234224379063,-0.0006029820069670677,0.00029572859057225287
1740933583016623400,5.558623291015625,-0.0003527081571519375,-0.0005105044692754745,-0.0016885993536561728
1740933583026590500,5.568590576171875,-0.001255253329873085,0.0029907533898949623,-0.0007258666446432471
1740933583036557300,5.578557373046875,0.00022086710669100285,-0.0013263672590255737,0.0009855693206191063
1740933583046523400,5.5885234375,-0.0003607671242207289,-0.001764457207173109,0.0013248559553176165
1740933583056490500,5.598490478515625,0.0005295239388942719,-0.0012551797553896904,0.0005079472903162241
1740933583066456300,5.608456298828125,0.0012118257582187653,-0.0006921878084540367,-0.0009037944255396724
1740933583076423400,5.61842333984375,0.00008063088171184063,0.0000852653756737709,0.0024163229390978813
1740933583086390300,5.628390380859375,0.0015365809667855501,0.0005097733810544014,0.003028850071132183
1740933583096356400,5.6383564453125,0.0002839723601937294,0.000646461732685566,-0.00030576292192563415
1740933583106323200,5.6483232421875,-0.0014771760907024145,-0.000430254265666008,0.000881740590557456
1740933583116289300,5.658289306640625,0.0004094931064173579,0.00002581905573606491,0.0002416406641714275
1740933583126256000,5.668256103515625,0.00017966236919164658,0.0019086739048361778,-0.0014609182253479958
1740933583136223200,5.67822314453125,-0.00013507669791579247,-0.0013246280141174793,0.00013914075680077076
1740933583146189300,5.688189208984375,0.0001466856338083744,-0.001383217517286539,0.0006936108693480492
1740933583156156400,5.698156494140625,-0.00041888398118317127,-0.0006893137469887733,0.0019606961868703365
1740933583166122200,5.708122314453125,0.0022911487612873316,0.00011442881077528,-0.0008667819201946259
1740933583176089300,5.71808935546875,0.0008722187485545874,0.000005455687642097473,0.0009924499318003654
1740933583186056400,5.728056396484375,0.0010895326267927885,-0.002726947423070669,0.0020934005733579397
1740933583196022300,5.738022216796875,0.0009227335685864091,0.001047736033797264,0.0005139862187206745
1740933583205989400,5.7479892578125,-0.0005726313684135675,-0.0013720118440687656,0.0020945724099874496
1740933583215955200,5.757955078125,-0.0009522526524960995,-0.0007237419486045837,-0.00026097858790308237
1740933583225922300,5.76792236328125,0.00014017615467309952,0.0010765548795461655,-0.00004606149741448462
1740933583235889200,5.77788916015625,-0.0016373407561331987,0.00040217023342847824,0.0008266879012808204
1740933583245855200,5.787855224609375,-0.0010277433320879936,-0.0005730800330638885,0.0014866192359477282
1740933583255822300,5.797822265625,0.00037986994720995426,-0.00006309244781732559,0.0019279082771390676
1740933583265788400,5.807788330078125,0.00272318534553051,-0.0004974538460373878,-0.0007099529029801488
1740933583275755500,5.817755615234375,-0.0014888953883200884,0.000028750859200954437,-0.0016826922073960304
1740933583285722400,5.827722412109375,-0.0010364244226366282,-0.002575820777565241,0.0005277314339764416
1740933583295688400,5.8376884765625,0.0004788049263879657,0.0007166890427470207,0.001861615921370685
1740933583305655300,5.8476552734375,-0.0009920590091496706,0.0009249486029148102,-0.0003591940039768815
1740933583315622400,5.857622314453125,0.001187508343718946,0.000017615966498851776,-0.0015260518994182348
1740933583325588200,5.867588134765625,0.0025843363255262375,0.0005627647042274475,-0.0019606798887252808
1740933583335555300,5.877555419921875,0.0005606008926406503,0.0005662571638822556,0.0005478571401908994
1740933583345521200,5.887521240234375,0.000521186157129705,0.0012874407693743706,0.0020509453024715185
1740933583355488300,5.89748828125,-0.0008478434756398201,0.0022806311026215553,0.002924425760284066
1740933583365455400,5.907455322265625,-0.00042999349534511566,-0.0019937423057854176,0.0001544718979857862
1740933583375421200,5.917421142578125,-0.0010655333753675222,-0.0001616673544049263,-0.0017470165621489286
1740933583385388300,5.92738818359375,0.0009289078880101442,-0.002738808747380972,-0.0015179846668615937
1740933583395354400,5.937354248046875,-0.000501199159771204,0.0008245846256613731,-0.0015847190516069531
1740933583405321500,5.947321533203125,0.0021755441557615995,0.00020540039986371994,-0.0008877698564901948
1740933583415287300,5.957287353515625,-0.001975926337763667,-0.0025217998772859573,0.0008849278092384338
1740933583425254400,5.96725439453125,0.001861688564531505,-0.002285843715071678,-0.000512965430971235
1740933583435221200,5.97722119140625,0.0005425527924671769,0.0014234567061066628,0.0014836068730801344
1740933583445187300,5.987187255859375,0.0009193901205435395,-0.00011212192475795746,0.0008676176657900214
1740933583455154400,5.997154541015625,0.0005658954614773393,0.0005673645064234734,-0.0002561105939093977
1740933583465121300,6.007121337890625,-0.0003283941186964512,0.00039212778210639954,-0.0019429568201303482
1740933583475087400,6.01708740234375,-0.002134865615516901,0.0009005097672343254,0.00018920854199677706
1740933583485054200,6.02705419921875,-0.0007878385949879885,-0.001400461420416832,0.0008842936367727816
1740933583495020300,6.037020263671875,-0.000053220195695757866,-0.0016639437526464462,0.0029574499931186438
1740933583504987100,6.046987060546875,0.0001872633583843708,-0.0004980117082595825,-0.0005014637135900557
1740933583514954200,6.056954345703125,-0.0004056869074702263,0.0013632318004965782,-0.0004279985441826284
1740933583524920300,6.06692041015625,-0.0009356560185551643,-0.001344138290733099,0.001491607865318656
1740933583534887400,6.076887451171875,0.000018369406461715698,0.0019022636115550995,0.000538169639185071
1740933583544853200,6.086853271484375,-0.0013427722733467817,0.0007752133533358574,-0.0002442670811433345
1740933583554820400,6.0968203125,0.0005877375369891524,0.00026758573949337006,0.0012746218126267195
1740933583564787500,6.106787353515625,-0.000823471462354064,0.00034881196916103363,-0.00042820334783755243
1740933583574753300,6.116753173828125,0.0015213574515655637,0.00028426945209503174,-0.0004578069783747196
1740933583584720400,6.126720458984375,-0.000759640010073781,0.0020877625793218613,-0.00116700679063797
1740933583594686200,6.136686279296875,0.0013985184486955404,-0.0008881357498466969,-0.0011569136986508965
1740933583604652800,6.14665283203125,0.00009356951341032982,0.0012605022639036179,-0.00009457874693907797
1740933583614620000,6.156619873046875,-0.0017361179925501347,0.004623838700354099,0.0010954111348837614
1740933583624586000,6.1665859375,-0.0005076017696410418,-0.0008873064070940018,0.0008685097564011812
1740933583634552800,6.176552734375,0.000025850487872958183,0.0011897478252649307,-0.00017419940559193492
1740933583644519000,6.186518798828125,-0.0011901487596333027,-0.0000997539609670639,0.0014183708699420094
1740933583654486000,6.196486083984375,-0.001788340974599123,0.0006181914359331131,-0.0002945543674286455
1740933583664453000,6.206453125,0.000838068313896656,-0.0003147134557366371,0.0015182592906057835
1740933583674419000,6.2164189453125,-0.00045312056317925453,-0.00030659139156341553,-0.0013051965506747365
1740933583684386000,6.226385986328125,0.0006068175425752997,-0.00027037225663661957,-0.0011592553928494453
1740933583694352000,6.236351806640625,-0.002061702311038971,0.001019277609884739,0.0029515072237700224
1740933583704319000,6.246319091796875,0.00022089306730777025,-0.0009682392701506615,0.0019933017902076244
1740933583714285800,6.256285888671875,-0.002486197743564844,0.00023986771702766418,-0.001258112140931189
1740933583724252000,6.266251953125,0.0010555400513112545,-0.0005058171227574348,-0.0016892780549824238
1740933583734218800,6.27621875,0.0025764729361981153,0.0009800679981708527,-0.003126575844362378
1740933583744185000,6.28618505859375,-0.0003713802434504032,0.0005382495000958443,-0.0002772598818410188
1740933583754152000,6.29615185546875,-0.0013782032765448093,0.0004020771011710167,0.0007563609397038817
1740933583764118800,6.306118896484375,-0.0005361118819564581,-0.00019713398069143295,-0.003124397248029709
1740933583774085000,6.316085205078125,-0.0015682424418628216,0.002120579592883587,0.0014619844732806087
1740933583784052000,6.326052001953125,0.001310634659603238,-0.0014432626776397228,0.000856381724588573
1740933583794018000,6.33601806640625,-0.000381287420168519,0.0021631205454468727,0.001087321899831295
1740933583803985000,6.34598486328125,0.0005894347559660673,-0.0010395967401564121,0.0014891928294673562
1740933583813952000,6.355951904296875,0.0022244728170335293,0.0029442179948091507,-0.000097997224656865
1740933583823917800,6.365917724609375,0.0004843632923439145,0.0019977297633886337,-0.0011952195782214403
1740933583833885000,6.375885009765625,0.0013937624171376228,0.0002732034772634506,0.00038225523894652724
1740933583843852000,6.38585205078125,0.0009048060746863484,0.003647162578999996,-0.0011141749564558268
1740933583853817900,6.39581787109375,-0.0004329867660999298,-0.00015688035637140274,-0.0011446601711213589
1740933583863785000,6.405784912109375,-0.001992533914744854,0.00022475048899650574,0.0005256744916550815
1740933583873751000,6.4157509765625,-0.000019877450540661812,0.0012934999540448189,0.0006392624927684665
1740933583883718000,6.4257177734375,0.001392929581925273,0.0007334370166063309,-0.00009363950812257826
1740933583893685000,6.43568505859375,-0.00007927208207547665,0.000652095302939415,-0.0025111192371696234
1740933583903651000,6.445651123046875,0.0005034274654462934,0.0003745937719941139,-0.0000961648765951395
1740933583913618000,6.455617919921875,-0.002267309930175543,-0.0013912809081375599,-0.001593180699273944
1740933583923584000,6.465583984375,-0.0018587810918688774,0.0005759960040450096,0.0016798442229628563
1740933583933550800,6.47555078125,0.0008886855794116855,0.002432955428957939,-0.00407510856166482
1740933583943518000,6.48551806640625,-0.001182987354695797,-0.00035217776894569397,-0.0016740026185289025
1740933583953483800,6.49548388671875,-0.00039578950963914394,-0.0021753902547061443,0.0020250468514859676
1740933583963451000,6.505450927734375,0.0007741372101008892,-0.000352456234395504,-0.003073042258620262
1740933583973417000,6.5154169921875,-0.00018660025671124458,0.002071121707558632,0.0009805253939703107
1740933583983383800,6.5253837890625,0.003117850050330162,-0.0000447593629360199,0.00029236453701741993
1740933583993351000,6.535350830078125,-0.00007281661964952946,0.0004304340109229088,-0.0008991299546323717
1740933584003317000,6.54531689453125,0.00044010812416672707,-0.0016116779297590256,-0.000002443644916638732
1740933584013283800,6.555283935546875,-0.0023469380103051662,0.001345103606581688,-0.0003587196988519281
1740933584023250000,6.56525,0.0011114429216831923,0.00009048916399478912,-0.0003174407174810767
1740933584033217000,6.575217041015625,0.0012044459581375122,0.00021930597722530365,-0.0005295611917972565
1740933584043184000,6.58518408203125,0.0008366635302081704,0.0010435543954372406,-0.0009215784957632422
1740933584053150000,6.59514990234375,0.00034982769284397364,-0.001126561313867569,0.0011326797539368272
1740933584063117000,6.605116943359375,-0.0005684304051101208,0.0008005024865269661,-0.0008777405600994825
1740933584073083000,6.615082763671875,0.0008748623076826334,-0.0005723116919398308,-0.0005476563237607479
1740933584083050000,6.625050048828125,-0.0006750973407179117,0.001819472759962082,-0.0008243587799370289
1740933584093016800,6.635016845703125,-0.0015481335576623678,-0.0012919087894260883,-0.00038579132524318993
1740933584102983000,6.64498291015625,-0.0009481234010308981,-0.00040640775114297867,0.00040090648690238595
1740933584112949800,6.65494970703125,-0.0005612815730273724,0.00109014380723238,0.000851413409691304
1740933584122916000,6.664916015625,-0.00034210318699479103,-0.0005373135209083557,-0.0012157321907579899
1740933584132883000,6.674883056640625,0.0012945651542395353,0.0003462284803390503,0.0010458629112690687
1740933584142850000,6.68485009765625,0.0005677886074408889,0.000958222895860672,-0.0004513661842793226
1740933584152815900,6.69481591796875,0.0005611593369394541,0.000044393353164196014,-0.000770319951698184
1740933584162783000,6.704782958984375,-0.0015957348514348269,0.0005218973383307457,0.000523976341355592
1740933584172749000,6.7147490234375,-0.00009117810986936092,0.0010517425835132599,-0.0019543967209756374
1740933584182716000,6.7247158203125,-0.0019822886679321527,0.001496756449341774,0.0018358140951022506
1740933584192683000,6.73468310546875,0.0005558122647926211,-0.0013333889655768871,0.00033913488732650876
1740933584202648800,6.74464892578125,0.0000846991315484047,0.0007774326950311661,0.0006200983771122992
1740933584212616000,6.754615966796875,-0.00011754757724702358,-0.00028721336275339127,-0.004225192591547966
1740933584222581800,6.764581787109375,-0.0003292688634246588,-0.002303759101778269,-0.0004397755255922675
1740933584232548900,6.774548828125,0.0001719634747132659,-0.002753001172095537,-0.00031404668698087335
1740933584242516000,6.784515869140625,-0.0005047458689659834,0.002372519113123417,-0.0000868790375534445
1740933584252482000,6.79448193359375,-0.0014592783991247416,0.0028970707207918167,0.00014978149556554854
1740933584262449200,6.80444921875,0.0006089325761422515,-0.0002981899306178093,-0.00016873254207894206
1740933584272415000,6.8144150390625,-0.002133322414010763,0.0008910670876502991,-0.0005440086242742836
1740933584282382000,6.824382080078125,0.0021365236025303602,0.0010098442435264587,0.00009115529246628284
1740933584292349000,6.834348876953125,-0.0012397351674735546,-0.001197140198200941,-0.0009943506447598338
1740933584302315000,6.84431494140625,0.001680154586210847,0.0013834629207849503,-0.000441478390712291
1740933584312281900,6.85428173828125,-0.001312675653025508,0.00011459924280643463,-0.0019987677223980427
1740933584322248000,6.864248046875,-0.000007726717740297318,0.0009130146354436874,0.001463341643102467
1740933584332214800,6.87421484375,-0.002065703272819519,-0.0009344783611595631,0.0013079114723950624
1740933584342182000,6.884181884765625,-0.0006510321982204914,-0.0013203704729676247,-0.0005499096587300301
1740933584352147700,6.894147705078125,-0.0029843749944120646,0.0025826599448919296,-0.0008010066812857985
1740933584362114800,6.90411474609375,-0.0006628974806517363,0.0013496158644557,0.0010948976268991828
1740933584372081200,6.9140810546875,0.0006235386244952679,0.0004276987165212631,0.0006298202788457274
1740933584382048000,6.924048095703125,0.00336712715215981,-0.0005251811817288399,-0.001331864157691598
1740933584392015000,6.93401513671875,0.0005235449643805623,0.002133776433765888,0.0013086237013339996
1740933584401981000,6.94398095703125,-0.00042720348574221134,0.003587596118450165,0.0036074647214263678
1740933584411948000,6.953947998046875,-0.0012698490172624588,0.000023867003619670868,-0.0015510839875787497
1740933584421913900,6.963913818359375,-0.00236760382540524,-0.0009761499240994453,-0.0008442810503765941
1740933584431881000,6.973880859375,0.0001713666133582592,0.0003020893782377243,0.0010262250434607267
1740933584441848000,6.98384814453125,-0.0008451619651168585,0.0023069167509675026,0.0002738820039667189
1740933584451814000,6.99381396484375,0.002494269981980324,0.001620560884475708,-0.0018754465272650123
1740933584461781000,7.003781005859375,0.00008437549695372581,0.00109085813164711,-0.0006892746314406395
1740933584471746800,7.013746826171875,-0.0008316016755998135,-0.0002904832363128662,-0.0007996972999535501
1740933584481714000,7.0237138671875,0.0001420500921085477,-0.0014111418277025223,-0.00011819438077509403
1740933584491680800,7.0336806640625,-0.00013889465481042862,0.0011978857219219208,-0.0012796050868928432
1740933584501647000,7.043647216796875,-0.0007500899955630302,0.0017912378534674644,0.00043147592805325985
1740933584511614000,7.053614013671875,0.0021914392709732056,-0.0021528061479330063,-0.0013208985328674316
1740933584521580000,7.063580078125,0.0014508141903206706,0.0008706804364919662,-0.0006673588650301099
1740933584531547000,7.073546875,-0.00039320229552686214,0.0023058103397488594,0.0016480418853461742
1740933584541514000,7.083513916015625,0.00016100145876407623,-0.0006319219246506691,0.00016759068239480257
1740933584551479800,7.093479736328125,0.0003526069922372699,0.00027313269674777985,0.00018365547293797135
1740933584561447000,7.103447021484375,0.0017201402224600315,-0.0010099783539772034,0.0024089927319437265
1740933584571413000,7.1134130859375,0.00016778381541371346,0.0009312247857451439,0.0011736060259863734
1740933584581379800,7.1233798828125,0.00009880797006189823,-0.00032046064734458923,-0.0011521326377987862
1740933584591347000,7.133346923828125,-0.0009833050426095724,0.00010325293987989426,-0.001349967671558261
1740933584601312800,7.143312744140625,-0.0005494761280715466,-0.0012949067167937756,-0.00010707040200941265
1740933584611279400,7.153279296875,-0.0018063958268612623,0.002013126388192177,-0.0019711367785930634
1740933584621245400,7.163245361328125,0.00005621905438601971,-0.0008561629801988602,-0.0002675126015674323
1740933584631212500,7.173212646484375,-0.0013990302104502916,0.0005211299285292625,-0.0004982386599294841
1740933584641179600,7.1831796875,0.0031621656380593777,-0.0010562604293227196,0.0020615917164832354
1740933584651145500,7.1931455078125,-0.000033767661079764366,-0.0005759149789810181,-0.0009625171078369021
1740933584661112600,7.203112548828125,0.00012016319669783115,-0.0014981678687036037,-0.001628307392820716
1740933584671078400,7.213078369140625,-0.0004086375702172518,-0.0022219442762434483,0.0006760371616110206
1740933584681045500,7.22304541015625,-0.0013585870619863272,-0.0007793102413415909,0.0005146496696397662
1740933584691012400,7.233012451171875,0.00025452603586018085,0.0009137978777289391,-0.0000164121447596699
1740933584700978400,7.242978515625,-0.0014909098390489817,0.00006851088255643845,-0.0008832711027935147
1740933584710945300,7.2529453125,0.0025055264122784138,-0.0005748532712459564,0.001044236938469112
1740933584720911600,7.26291162109375,-0.0008178323041647673,0.0018046805635094643,-0.0017438264330849051
1740933584730878500,7.27287841796875,0.00011173589155077934,-0.0028614122420549393,0.001818237011320889
1740933584740845600,7.282845458984375,0.00022438762243837118,-0.001319708302617073,0.0024211767595261335
1740933584750811600,7.292811767578125,-0.0008230984676629305,-0.0008644228801131248,-0.0008014999330043793
1740933584760778500,7.302778564453125,-0.0005051170010119677,0.0003710174933075905,0.0008589810458943248
1740933584770744600,7.31274462890625,-0.0009242754895240068,0.0020870445296168327,-0.0009132735431194305
1740933584780711400,7.32271142578125,0.000011292984709143639,0.0011762436479330063,-0.000798491295427084
1740933584790678500,7.332678466796875,0.0003558340249583125,0.001099645160138607,-0.0017895870842039585
1740933584800644400,7.342644287109375,0.0016479997429996729,-0.0007563112303614616,-0.0011032905895262957
1740933584810611500,7.352611572265625,0.0007899370975792408,-0.0003114752471446991,0.0018954338738694787
1740933584820577300,7.362577392578125,0.0002698217285797,-0.0015069679357111454,0.0016115409089252353
1740933584830544400,7.37254443359375,-0.002563979011029005,-0.0025518876500427723,0.000338548154104501
1740933584840511500,7.382511474609375,0.0007314166286960244,-0.002573192585259676,0.0030858651734888554
1740933584850477600,7.3924775390625,0.0006626193644478917,-0.0014931848272681236,0.002618660917505622
1740933584860444700,7.402444580078125,0.0014889982994645834,0.0006485292688012123,0.0017573947552591562
1740933584870410500,7.412410400390625,-0.00011809496209025383,0.001001466065645218,0.0019782460294663906
1740933584880377600,7.422377685546875,0.0010699410922825336,-0.002769037615507841,0.0006341487169265747
1740933584890344400,7.432344482421875,-0.0007099425420165062,-0.0014338111504912376,0.0009735164931043983
1740933584900310500,7.442310546875,-0.0008670692332088947,0.001650928519666195,-0.001767675275914371
1740933584910277400,7.45227734375,0.00003213249146938324,-0.0017141778953373432,-0.0024552277754992247
1740933584920243500,7.462243408203125,0.0002060368424281478,0.00041049253195524216,0.0016628181328997016
1740933584930210300,7.472210205078125,-0.0035244591999799013,0.0003398796543478966,0.0008840701775625348
1740933584940176400,7.48217626953125,-0.0004751398228108883,0.00026025064289569855,0.002056926256045699
1740933584950143500,7.4921435546875,-0.0017924308776855469,-0.0001026177778840065,-0.0016001792391762137
1740933584960110300,7.5021103515625,0.0006741889519616961,-0.0004008915275335312,-0.0008877837099134922
1740933584970076700,7.51207666015625,-0.0006177306640893221,-0.0002719992771744728,-0.002082472201436758
1740933584980043500,7.52204345703125,-0.0011010942980647087,-0.0006102202460169792,0.0009980060858651996
1740933584990009600,7.532009521484375,0.0007099093636497855,-0.0010394714772701263,0.001936499960720539
1740933584999976400,7.5419765625,0.0005890018073841929,0.0012503145262598991,-0.001240651123225689
1740933585009943600,7.551943603515625,-0.0016349051147699356,-0.0008215317502617836,-0.0010046141687780619
1740933585019909400,7.561909423828125,0.00017444661352783442,-0.0004990231245756149,0.0002079230034723878
1740933585029876500,7.57187646484375,0.00036535446997731924,-0.0015656882897019386,0.0017187388148158789
1740933585039842300,7.58184228515625,-0.0013917991891503334,-0.0006876438856124878,-0.003365768352523446
1740933585049809400,7.591809326171875,-0.0014696174766868353,0.0022087153047323227,-0.003311959095299244
1740933585059776500,7.601776611328125,0.0003037814749404788,0.003510734997689724,0.0023091749753803015
1740933585069742300,7.611742431640625,0.0024580976460129023,0.001002272590994835,-0.00012251301086507738
1740933585079709400,7.62170947265625,-0.0015994946006685495,0.00014313682913780212,0.0018450303468853235
1740933585089675500,7.631675537109375,0.0007220318075269461,-0.0016975626349449158,-0.0015148019883781672
1740933585099642600,7.641642578125,-0.0013107589911669493,-0.0003377525135874748,0.0040203118696808815
1740933585109609500,7.651609375,-0.000597348203882575,0.0004021143540740013,-0.0027499923016875982
1740933585119575600,7.661575439453125,-0.000737430527806282,0.0008641732856631279,-0.0006154686561785638
1740933585129542700,7.671542724609375,-0.0004655055236071348,-0.00016865041106939316,0.0018956518033519387
1740933585139508500,7.681508544921875,-0.0001363388728350401,-0.0005606682971119881,-0.0011403518728911877
1740933585149475600,7.6914755859375,0.0011954335495829582,-0.0008135894313454628,-0.00035735362325794995
1740933585159442400,7.7014423828125,-0.0010059354826807976,-0.0016620727255940437,0.000047979498049244285
1740933585169408500,7.711408447265625,-0.0012724348343908787,-0.000128135085105896,-0.00038963943370617926
1740933585179375400,7.721375244140625,-0.0006290152668952942,-0.000013086944818496704,-0.000274324556812644
1740933585189341400,7.731341552734375,-0.0011384754907339811,0.0026884619146585464,-0.000028055335860699415
1740933585199308300,7.741308349609375,-0.0005142304580658674,0.001199754886329174,-0.0009798691608011723
1740933585209275400,7.751275390625,-0.0011630957014858723,0.0005113780498504639,0.0007043818477541208
1740933585219241500,7.761241455078125,0.00040497363079339266,0.00037795305252075195,0.0038740760646760464
1740933585229208600,7.77120849609375,-0.001159904059022665,-0.0027167736552655697,0.0009388088365085423
1740933585239174400,7.78117431640625,0.0002638219157233834,-0.00029809027910232544,0.0009521246538497508
1740933585249141500,7.7911416015625,-0.00038781831972301006,-0.00032856035977602005,0.002225756412371993
1740933585259108600,7.801108642578125,0.0008976896060630679,0.0002767760306596756,-0.0006073142867535353
1740933585269074400,7.811074462890625,-0.00030292198061943054,0.0015404876321554184,0.0004927595146000385
1740933585279041500,7.82104150390625,0.0008310520788654685,0.00028347596526145935,0.00009461690206080675
1740933585289007400,7.83100732421875,-0.0009267271962016821,0.0012551583349704742,-0.002044748980551958
1740933585298974500,7.840974365234375,-0.00024362653493881226,0.0020146919414401054,-0.001648204168304801
1740933585308941300,7.85094140625,-0.00012043886817991734,0.0009089158847928047,0.0006941466708667576
1740933585318907400,7.860907470703125,-0.0015098098665475845,0.002445293590426445,-0.000708806561306119
1740933585328874500,7.87087451171875,0.0005282968049868941,-0.0019091526046395302,0.0009544854401610792
1740933585338840600,7.880840576171875,0.0010292374063283205,0.00047757290303707123,-0.00006816835957579315
1740933585348807700,7.8908076171875,-0.0011795393656939268,-0.001254926435649395,0.0006425701430998743
1740933585358774500,7.9007744140625,-0.0013838037848472595,-0.00014678575098514557,0.0005711974226869643
1740933585368740600,7.91074072265625,-0.0001868868712335825,0.0009794561192393303,-0.0018201747443526983
1740933585378707500,7.92070751953125,-0.002025000751018524,0.00005214288830757141,-0.0018087232019752264
1740933585388673500,7.930673583984375,0.001978501910343766,0.00008676201105117798,0.002093609655275941
1740933585398640400,7.940640380859375,0.00035450642462819815,0.001729399897158146,0.0002504357253201306
1740933585408607500,7.950607421875,0.0013446445809677243,0.0029537538066506386,0.0016176368808373809
1740933585418573300,7.9605732421875,-0.0002921342384070158,-0.0014990516938269138,-0.00023299374151974916
1740933585428540400,7.97054052734375,0.0012721659149974585,-0.0019388962537050247,0.000752646941691637
1740933585438506200,7.98050634765625,-0.0011726159136742353,-0.0006866781041026115,0.0007659627590328455
1740933585448473300,7.990473388671875,-0.0014723006170243025,0.00027128029614686966,-0.0020552852656692266
1740933585458439700,8.000439697265625,0.00223695021122694,-0.0021354183554649353,-0.0015735194319859147
1740933585468406500,8.010406494140625,-0.000698774354532361,0.0001855911687016487,0.00020847609266638756
1740933585478373600,8.02037353515625,-0.0010037063620984554,0.0006516445428133011,0.00011553178774192929
1740933585488339500,8.03033935546875,-0.0014591156505048275,0.0005668019875884056,-0.0018219659104943275
1740933585498306600,8.040306640625,0.0010453211143612862,0.0008514942601323128,-0.002231027465313673
1740933585508272400,8.0502724609375,0.0003483386244624853,0.0011649411171674728,0.0017242254689335823
1740933585518239500,8.060239501953125,-0.00041678757406771183,0.001179588958621025,-0.0023514763452112675
1740933585528206600,8.07020654296875,-0.002683160128071904,0.000973348505795002,-0.00035497284261509776
1740933585538172400,8.08017236328125,0.00020956562366336584,0.00025216490030288696,0.0017995245289057493
1740933585548139500,8.090139404296876,0.00011041178368031979,-0.001231194008141756,0.0020353803411126137
1740933585558105300,8.100105224609376,-0.0004967888817191124,0.0013565998524427414,0.000253459089435637
1740933585568072400,8.110072509765626,-0.0008179398719221354,-0.0011453907936811447,-0.00016180876991711557
1740933585578039300,8.120039306640624,-0.0008211357053369284,0.0015894090756773949,0.00003206933615729213
1740933585588005600,8.130005615234374,0.001183963380753994,-0.0011068596504628658,-0.0001513086026534438
1740933585597972500,8.139972412109374,-0.001223267987370491,-0.00042881909757852554,-0.0019691823981702328
1740933585607938800,8.149938720703124,-0.0015146892983466387,0.0017818314954638481,-0.0015804185532033443
1740933585617905700,8.15990576171875,-0.00024755741469562054,-0.0023260945454239845,-0.0010456559248268604
1740933585627872800,8.169872802734375,0.0018550911918282509,0.00010737031698226929,0.0006596616003662348
1740933585637838600,8.179838623046875,-0.0011026153806596994,0.0009689033031463623,0.00006231456063687801
1740933585647805700,8.1898056640625,0.0008959779515862465,0.0017087990418076515,0.0028517297469079494
1740933585657771500,8.199771484375,-0.00044678780250251293,-0.00005128420889377594,-0.0002665654174052179
1740933585667738600,8.209738525390625,-0.0004156213253736496,0.00020181667059659958,0.0015114066191017628
1740933585677705700,8.219705810546875,-0.0004065665416419506,0.0007110126316547394,-0.0009237879421561956
1740933585687671600,8.229671630859375,0.002530129626393318,0.0001299036666750908,0.0005671944236382842
1740933585697638700,8.239638671875,0.00018468371126800776,0.0010739946737885475,-0.0001973991165868938
1740933585707604700,8.249604736328125,0.001177408266812563,0.0004856828600168228,0.0009461544686928391
1740933585717571800,8.25957177734375,0.00022186606656759977,0.0006763655692338943,0.0008268449455499649
1740933585727538700,8.26953857421875,-0.0001754038967192173,0.0005043074488639832,-0.00017062085680663586
1740933585737504800,8.2795048828125,-0.0003341282717883587,-0.0012091710232198238,0.0013788063079118729
1740933585747471600,8.2894716796875,0.0004214224172756076,-0.00025166478008031845,-0.0035570706240832806
1740933585757437700,8.299437744140626,-0.0003828522749245167,-0.00047137588262557983,0.0009351492626592517
1740933585767404800,8.30940478515625,0.00133810518309474,-0.0018144887872040272,0.0019873850978910923
1740933585777370600,8.31937060546875,0.001478187390603125,-0.0017990428023040295,0.002600977197289467
1740933585787337700,8.329337646484374,-0.00024982308968901634,-0.0006399387493729591,0.003768215887248516
1740933585797304600,8.3393046875,0.0008093160577118397,-0.0020767138339579105,-0.0012635604944080114
1740933585807270700,8.349270751953124,0.000381837016902864,0.0017232075333595276,-0.001103601767681539
1740933585817237500,8.359237548828125,0.002173878252506256,0.0006166640669107437,0.000047150126192718744
1740933585827203800,8.369203857421875,-0.0012566770892590284,0.0006919922307133675,-0.0017694474663585424
1740933585837170700,8.379170654296875,0.0010589414741843939,0.002174573950469494,0.000615413358900696
1740933585847137800,8.3891376953125,-0.00005453219637274742,-0.0009801904670894146,-0.0004053416196256876
1740933585857103600,8.399103515625,-0.00025586714036762714,0.0007266290485858917,-0.001228258479386568
1740933585867070700,8.40907080078125,-0.0007931606378406286,-0.0005653416737914085,0.0004298215499147773
1740933585877036500,8.41903662109375,0.000758396927267313,0.0007731625810265541,-0.0012250668369233608
1740933585887003600,8.429003662109375,-0.0010185868013650179,-0.0026633786037564278,0.0005805545952171087
1740933585896970800,8.438970703125,-0.00028089131228625774,-0.00019782409071922302,0.0020098730456084013
1740933585906936600,8.4489365234375,0.002057286212220788,0.001093817874789238,0.0010303686140105128
1740933585916903700,8.458903564453125,-0.0004990820307284594,-0.0012750639580190182,-0.0014767312677577138
1740933585926869500,8.468869384765625,-0.0015882423613220453,0.00010592862963676453,0.00013519602362066507
1740933585936836600,8.478836669921876,-0.00013069435954093933,-0.0006312346085906029,-0.0014784132363274693
1740933585946803500,8.488803466796876,-0.0009971554391086102,-0.00025046803057193756,0.0008208606159314513
1740933585956769800,8.498769775390626,0.0003807642497122288,0.000256597064435482,-0.0009014056413434446
1740933585966737000,8.50873681640625,0.00034220225643366575,0.00032084062695503235,-0.002725922269746661
1740933585976702700,8.51870263671875,-0.0006831148639321327,0.0006007393822073936,-0.0009048525826074183
1740933585986669800,8.528669921875,-0.0007427886594086885,0.0019557857885956764,-0.0009131324477493763
1740933585996636700,8.53863671875,-0.00023226067423820496,-0.00002960115671157837,-0.003747534705325961
1740933586006602800,8.548602783203124,0.0002083617728203535,-0.00042761024087667465,-0.0000043276522774249315
1740933586016569600,8.558569580078125,0.0009841406717896461,0.00003844220191240311,0.00015466305194422603
1740933586026535700,8.56853564453125,0.0012648629490286112,-0.0009026546031236649,0.00033086957409977913
1740933586036502500,8.57850244140625,0.0015335758216679096,-0.0025088065303862095,-0.0005719420732930303
1740933586046469600,8.5884697265625,-0.0015755738131701946,0.0032549547031521797,-0.0037982556968927383
1740933586056435700,8.598435791015625,0.001187455840408802,-0.0009041037410497665,-0.003305037971585989
1740933586066402600,8.608402587890625,-0.0020685549825429916,0.0007392885163426399,0.0014765012310817838
1740933586076368600,8.61836865234375,0.0001240256242454052,-0.0002945512533187866,0.0005696949083358049
1740933586086335700,8.628335693359375,0.0004697993863373995,-0.001511107198894024,-0.0005078453687019646
1740933586096301800,8.6383017578125,-0.0003690964076668024,0.0020822957158088684,-0.0028226650319993496
1740933586106268700,8.6482685546875,0.0011457509826868773,-0.00024737417697906494,0.0015633472939953208
1740933586116235800,8.65823583984375,-0.0008809145074337721,0.0001888517290353775,-0.00141965935472399
1740933586126201600,8.66820166015625,0.0034180539660155773,-0.0007093651220202446,0.002488139783963561
1740933586136168700,8.678168701171876,0.0014174875104799867,-0.0017522592097520828,-0.0016197862569242716
1740933586146134500,8.688134521484375,-0.001876400550827384,0.00028071552515029907,-0.000343607971444726
1740933586156101600,8.6981015625,-0.0007783793844282627,0.0019667623564600945,-0.004164178855717182
1740933586166068700,8.70806884765625,0.0002517717657610774,0.0012652473524212837,0.000694932066835463
1740933586176034800,8.718034912109376,-0.000775409396737814,-0.0005675395950675011,0.0002608368231449276
1740933586186001700,8.728001708984374,0.00004777335561811924,-0.00018406938761472702,0.0011794533347710967
1740933586195967700,8.7379677734375,-0.00040416489355266094,0.00030621886253356934,-0.0017715954454615712
1740933586205934800,8.747934814453124,-0.00019696797244250774,0.0004464760422706604,-0.0016473071882501245
1740933586215901700,8.757901611328125,-0.0010755446273833513,0.0002102535218000412,-0.00008749379776418209
1740933586225867800,8.76786767578125,0.0016823000041767955,0.0007541142404079437,0.0002642305043991655
1740933586235834600,8.777834716796875,-0.00040162354707717896,0.0008646352216601372,0.00166851538233459
1740933586245800700,8.78780078125,0.001527734100818634,-0.00023460295051336288,-0.0009205056121572852
1740933586255767600,8.797767578125,0.0012944412883371115,-0.003685527015477419,0.001904043136164546
1740933586265734700,8.807734619140625,0.0011096931993961334,0.0018578367307782173,0.00039763658423908055
1740933586275700500,8.817700439453125,0.000013802433386445045,-0.0010106544941663742,0.0011539743281900883
1740933586285667600,8.82766748046875,-0.0007473889272660017,-0.0015111551620066166,0.00005505222361534834
1740933586295634000,8.837634033203125,-0.0025226520374417305,0.0039549823850393295,0.0008920838008634746
1740933586305600800,8.847600830078125,0.0012786390725523233,0.0010559028014540672,-0.0011703020427376032
1740933586315567600,8.857567626953125,0.00011963141150772572,-0.00002906937152147293,-0.0006065108464099467
1740933586325533700,8.86753369140625,0.0006648640846833587,0.0008547604084014893,-0.0013760352740064263
1740933586335500800,8.877500732421876,-0.0006294322665780783,0.0008512986823916435,-0.0012258329661563039
1740933586345466600,8.887466552734375,-0.0004054824821650982,-0.00033250264823436737,-0.00046085394569672644
1740933586355433700,8.897433837890626,-0.0003807151224464178,0.0007548658177256584,0.0017362538492307067
1740933586365400800,8.90740087890625,-0.0011968053877353668,0.0009993594139814377,0.0009963593911379576
1740933586375366700,8.91736669921875,0.0012727438006550074,0.000418257899582386,0.00039608299266546965
1740933586385333800,8.927333740234374,-0.0002085666637867689,-0.00004817638546228409,-0.0006810114136897027
1740933586395299600,8.937299560546874,-0.0009396043606102467,-0.0021009407937526703,-0.0018464106833562255
1740933586405266700,8.9472666015625,0.0014170552603900433,0.0002649957314133644,-0.0008335432503372431
1740933586415233500,8.957233642578124,-0.00026313308626413345,-0.002074591349810362,0.0013156277127563953
1740933586425199900,8.967199951171875,-0.0008889490272849798,0.00009194575250148773,0.0028911989647895098
1740933586435166700,8.977166748046875,-0.0005816202610731125,0.001411542296409607,-0.003907051868736744
1740933586445132800,8.9871328125,-0.00017532892525196075,0.0005461303517222404,-0.0002479078830219805
1740933586455099600,8.997099609375,-0.00028877961449325085,0.0008246973156929016,-0.0004782713367603719
1740933586465065700,9.007065673828125,-0.0006517956499010324,0.0018242523074150085,0.0016938939224928617
1740933586475032600,9.017032470703125,-0.00044912914745509624,-0.0007257247343659401,-0.00039988322532735765
1740933586484999700,9.026999755859375,-0.0008007625583559275,-0.00015102792531251907,-0.0010592708131298423
1740933586494965800,9.0369658203125,0.00023733777925372124,-0.0009177522733807564,-0.000856337952427566
1740933586504932600,9.0469326171875,-0.00002743280492722988,-0.000664406456053257,0.0021175434812903404
1740933586514898700,9.056898681640625,0.0006852290825918317,-0.00015307962894439697,-0.00019674365466926247
1740933586524865500,9.066865478515625,0.0006163951475173235,0.0007729493081569672,0.0005800686776638031
1740933586534832600,9.07683251953125,0.0015258645871654153,-0.001366900745779276,0.00037207576679065824
1740933586544798700,9.086798828125,-0.0005912119522690773,0.0012501925230026245,-0.0024593763519078493
1740933586554765800,9.096765869140626,-0.00034273904748260975,-0.0007823323830962181,-0.0019568377174437046
1740933586564731600,9.106731689453126,0.00054024753626436,-0.0015710233710706234,-0.0007620854885317385
1740933586574698800,9.11669873046875,0.0009873922681435943,-0.0000064158812165260315,-0.00041587455780245364
1740933586584665900,9.126665771484374,-0.001304510748013854,0.0004546362906694412,-0.0004139915690757334
1740933586594631700,9.136631591796874,-0.0013559097424149513,0.0021633198484778404,0.0008936204831115901
1740933586604599000,9.14659912109375,0.0015199258923530579,-0.0002373773604631424,0.001663641887716949
1740933586614564900,9.15656494140625,-0.0007024819497019053,0.0019434858113527298,0.0020162444561719894
1740933586624532000,9.166531982421875,0.0007443773793056607,0.00018886104226112366,0.0024442721623927355
1740933586634498800,9.176498779296875,0.0011031052563339472,-0.0026921466924250126,-0.00019598574726842344
1740933586644465000,9.18646484375,0.0009406320750713348,0.0009091375395655632,-0.0005603118916042149
1740933586654431700,9.196431640625,0.0017976373201236129,0.0018447060137987137,-0.002095624338835478
1740933586664398000,9.206398193359375,-0.0023943670094013214,-0.0003768792375922203,0.0011498697567731142
1740933586674365000,9.216364990234375,0.0015511058736592531,0.0012591006234288216,0.0007330850348807871
1740933586684331000,9.2263310546875,0.00045037048403173685,0.001280633732676506,-0.0003780908591579646
1740933586694298000,9.236298095703125,0.0006999087054282427,-0.000874396413564682,0.0018488443456590176
1740933586704265000,9.246264892578125,-0.001675138482823968,-0.000004044733941555023,0.0005179025465622544
1740933586714231000,9.25623095703125,-0.00043570343405008316,-0.0018480177968740463,-0.00011806034308392555
1740933586724198000,9.266197998046875,0.0004126904532313347,-0.0011281888000667095,-0.002450939966365695
1740933586734164000,9.2761640625,0.0004236093955114484,0.0011509442701935768,-0.0004405197105370462
1740933586744130800,9.286130859375,0.002181772841140628,-0.0048246681690216064,0.001746071968227625
1740933586754098000,9.296097900390626,-0.0015738171059638262,-0.0023708315566182137,0.0005234148120507598
1740933586764063700,9.306063720703126,0.0008660475723445415,-0.00008040480315685272,0.0013551502488553524
1740933586774030800,9.31603076171875,0.0003011911176145077,0.0009355908259749413,0.00003368966281414032
1740933586783997000,9.325996826171876,0.0021813868079334497,-0.001766921952366829,-0.0011280415346845984
1740933586793964000,9.335964111328124,0.0005914797075092793,-0.0011253664270043373,0.0016429777024313807
1740933586803931000,9.345930908203124,-0.0007940272334963083,0.0005551762878894806,0.0004477160982787609
1740933586813897000,9.35589697265625,0.0009894917020574212,-0.00009916257113218307,-0.0018002581782639027
1740933586823864000,9.365864013671874,0.00021935254335403442,0.0020844051614403725,0.000026111549232155085
1740933586833830000,9.375829833984374,0.0005855371709913015,-0.00038381293416023254,0.0005946964374743402
1740933586843797000,9.385796875,-0.0005565278697758913,-0.002528090961277485,-0.00039733346784487367
1740933586853763800,9.395763916015625,-0.0003602528013288975,0.001317247748374939,-0.0016309097409248352
1740933586863730000,9.40572998046875,0.0002683799248188734,-0.0018413071520626545,-0.0004744350735563785
1740933586873697000,9.415697021484375,0.0026018416974693537,-0.0005491413176059723,0.0007615379290655255
1740933586883662800,9.425662841796875,-0.00029096915386617184,-0.0008335448801517487,0.0005375952459871769
1740933586893630000,9.4356298828125,-0.0004054850433021784,-0.0010689683258533478,0.002091549802571535
1740933586903596000,9.445595947265625,0.0004117425996810198,-0.00027022045105695724,0.001179240527562797
1740933586913563100,9.455563232421875,-0.00014672218821942806,0.00006773415952920914,0.0012804405996575952
1740933586923530000,9.465530029296875,-0.0011341741774231195,0.002065409906208515,-0.0015389162581413984
1740933586933496000,9.47549609375,0.0010908968979492784,-0.0005207862704992294,0.0010451489361003041
1740933586943463000,9.485462890625,-0.001337079331278801,-0.0005169128999114037,-0.0015847592148929834
1740933586953429000,9.495428955078125,0.0010238128015771508,0.00008123274892568588,-0.00024838498211465776
1740933586963395800,9.505395751953126,-0.00042505725286900997,-0.00016857683658599854,-0.0002520692069083452
1740933586973363000,9.515363037109376,-0.00008257478475570679,-0.0031880689784884453,0.0033226918894797564
1740933586983328800,9.525328857421876,-0.001567851286381483,-0.0005407845601439476,0.0011762516805902123
1740933586993296000,9.5352958984375,0.0011448445729911327,0.0008565755560994148,0.0005149887292645872
1740933587003262000,9.545261962890624,-0.002691840287297964,0.002377506345510483,-0.001834173803217709
1740933587013228800,9.555228759765624,0.0025932027492672205,-0.0015362752601504326,0.0006257881177589297
1740933587023196000,9.56519580078125,-0.0015656901523470879,-0.00036366935819387436,-0.00036524413735605776
1740933587033162000,9.575161865234374,0.00017095706425607204,0.0009873518720269203,0.0020092304330319166
1740933587043129000,9.585129150390625,-0.000443008029833436,0.0013870755210518837,-0.0006377601530402899
1740933587053095000,9.595094970703125,-0.00006963289342820644,0.00027866754680871964,-0.0009690573206171393
1740933587063062000,9.60506201171875,-0.000056723831221461296,0.001670103520154953,-0.00030393790802918375
1740933587073029000,9.615029052734375,0.0024557022843509912,0.002458399161696434,0.0002457385417073965
1740933587082995000,9.624994873046875,0.000376999843865633,0.0001070285215973854,0.0016423811903223395
1740933587092962000,9.634962158203125,-0.0015378128737211227,-0.0017667715437710285,0.0006865726318210363
1740933587102928000,9.644927978515625,-0.0015248865820467472,0.0011533936485648155,-0.0020209020003676414
1740933587112895000,9.65489501953125,0.000784073956310749,0.000041523948311805725,0.0002827322168741375
1740933587122860800,9.66486083984375,-0.0013999668881297112,-0.00022838637232780457,-0.0018097402062267065
1740933587132828000,9.674827880859375,-0.0035475397016853094,0.000418761745095253,-0.0014805735554546118
1740933587142794800,9.684794677734375,-0.0015360426623374224,0.00046882685273885727,-0.0008396845078095794
1740933587152761000,9.694760986328125,0.0013170018792152405,0.0009338147938251495,0.0007329121581278741
1740933587162728000,9.70472802734375,0.0008990346686914563,-0.0001627616584300995,0.0010627064621075988
1740933587172694000,9.714694091796876,-0.0005878082010895014,-0.0017372220754623413,-0.00032559942337684333
1740933587182660900,9.724660888671876,0.0010057615581899881,0.0008794385939836502,-0.00029194841044954956
1740933587192628000,9.7346279296875,-0.0021729874424636364,0.002575872465968132,0.000057458324590697885
1740933587202594000,9.744593994140626,0.00008546654134988785,0.0005600107833743095,-0.0028863498009741306
1740933587212561000,9.754560791015624,-0.0001552831381559372,0.003294277936220169,0.0007211682386696339
1740933587222527000,9.76452685546875,0.0008271753322333097,0.0001666015014052391,0.0003679546352941543
1740933587232493800,9.774493896484374,0.0020309241954237223,0.0006414428353309631,-0.00004856372834183276
1740933587242460000,9.7844599609375,0.00029262853786349297,0.001155599020421505,-0.0007001202320680022
1740933587252426800,9.7944267578125,0.001726208021864295,0.0018863705918192863,0.0011190850054845214
1740933587262393900,9.804393798828125,0.0015313565963879228,0.0007253559306263924,-0.0009219103958457708
1740933587272360000,9.81435986328125,0.0005901954136788845,-0.003782843705266714,0.0010533560998737812
1740933587282327000,9.8243271484375,-0.00045709917321801186,-0.0012477952986955643,-0.0003525645297486335
1740933587292292900,9.83429296875,0.0019245657604187727,-0.0016416767612099648,-0.00084951042663306
1740933587302260000,9.844260009765625,-0.0000030298251658678055,-0.00039328914135694504,0.002655832562595606
1740933587312227000,9.85422705078125,0.0008752807043492794,0.0018613431602716446,-0.0019772686064243317
1740933587322193000,9.86419287109375,-0.00039662630297243595,0.0011952687054872513,-0.0011687343940138817
1740933587332160000,9.874159912109375,-0.0012861222494393587,0.0008423998951911926,0.0018249249551445246
1740933587342125800,9.884125732421875,0.00041656731627881527,0.00013836659491062164,0.002314287004992366
1740933587352093000,9.894093017578125,0.00014545745216310024,-0.002783919684588909,-0.0006319681415334344
1740933587362059800,9.904059814453126,0.0003209986025467515,0.0004126429557800293,0.0014259160961955786
1740933587372025900,9.91402587890625,-0.0011013958137482405,0.0002885395660996437,0.0006501371972262859
1740933587381992700,9.92399267578125,-0.00020299130119383335,-0.0016602789983153343,-0.0001310114748775959
1740933587391959000,9.933958984375,-0.0011462827678769827,-0.0005295006558299065,-0.0023755235597491264
1740933587401926100,9.943926025390626,0.0011115472298115492,0.0010795220732688904,-0.00409553200006485
1740933587411892000,9.95389208984375,-0.0026714729610830545,-0.00013248249888420105,0.00036446368903853
1740933587421859000,9.963859130859374,-0.00025431904941797256,-0.0015984917990863323,0.0009533076081424952
1740933587431826000,9.973825927734374,0.0004740554140880704,0.003641810268163681,-0.0002523053844925016
1740933587441792000,9.9837919921875,0.0010190687607973814,-0.001213794108480215,-0.0010236757807433605
1740933587451758800,9.9937587890625,-0.0010816326830536127,-0.0010750438086688519,0.0008346780086867511
1740933587461725000,10.003724853515624,-0.0009622152429074049,0.0012995200231671333,0.0026724236086010933
1740933587471691800,10.01369189453125,-0.00033184513449668884,0.0006526382640004158,0.0015040946891531348
1740933587481659000,10.023658935546875,0.0013208193704485893,-0.0023670662194490433,0.0008283453644253314
1740933587491625000,10.033625,0.0003173403674736619,0.0019957246258854866,-0.0026223124004900455
1740933587501591800,10.043591796875,0.0004698963603004813,0.002031899057328701,-0.003010632935911417
1740933587511558000,10.053557861328125,0.000019023194909095764,-0.00007519405335187912,0.00016838236479088664
1740933587521525000,10.06352490234375,-0.0004741647280752659,-0.000502309761941433,0.00036297814222052693
1740933587531491000,10.073490966796875,0.0004049447597935796,-0.0001414511352777481,-0.0007318473653867841
1740933587541458000,10.0834580078125,0.0007928957929834723,-0.0005535474047064781,-0.0005213366821408272
1740933587551425000,10.093425048828125,-0.0000657073687762022,-0.0005908319726586342,-0.0008606234332546592
1740933587561390800,10.103390869140625,-0.0008491994813084602,-0.0014287899248301983,-0.0005550779169425368
1740933587571358000,10.11335791015625,-0.0005850137677043676,-0.0013172035105526447,0.0007916826289147139
1740933587581323800,10.12332373046875,-0.00035694753751158714,-0.00156325101852417,-0.0012674102326855063
1740933587591291000,10.133290771484376,-0.0005268570967018604,-0.0018799006938934326,0.001866065082140267
1740933587601258000,10.143258056640626,0.0010016909800469875,0.00026321690529584885,-0.0021124568302184343
1740933587611224600,10.153224609375,0.0021505786571651697,-0.0019309618510305882,0.0007730782963335514
1740933587621191400,10.16319140625,0.00011436548084020615,0.0007135244086384773,0.0005852452013641596
1740933587631157800,10.17315771484375,0.0003852088702842593,0.0004546651616692543,-0.000927430228330195
1740933587641124600,10.18312451171875,0.0014594101812690496,-0.0005529969930648804,0.0004980447120033205
1740933587651091500,10.193091552734375,-0.0004508751444518566,0.0015285294502973557,0.00006022100569680333
1740933587661057500,10.2030576171875,0.00013579835649579763,-0.0007501831278204918,0.003082085633650422
1740933587671024600,10.213024658203125,0.0011344837257638574,-0.00004604365676641464,-0.0012918902793899179
1740933587680990500,10.222990478515625,-0.00020638899877667427,0.00040010735392570496,-0.0018632530700415373
1740933587690957600,10.23295751953125,-0.0009989459067583084,0.00022593699395656586,-0.0009836108656600118
1740933587700923400,10.24292333984375,0.0013481350615620613,-0.0016537802293896675,0.0014960181433707476
1740933587710890500,10.252890380859375,0.0003766138106584549,-0.0005126157775521278,0.0006219687056727707
1740933587720857600,10.262857666015625,-0.0009804214350879192,0.000857161357998848,0.0009546049986965954
1740933587730823400,10.272823486328125,-0.0004142334219068289,-0.0010621785186231136,-0.0007980213267728686
1740933587740790500,10.28279052734375,0.0011573414085432887,-0.001455431804060936,0.001920178416185081
1740933587750756600,10.292756591796875,0.0009243148379027843,-0.0033646519295871258,0.0020197806879878044
1740933587760723700,10.3027236328125,-0.0014042023103684187,0.0003588460385799408,0.0024753990583121777
1740933587770690600,10.312690673828126,0.0011015658965334296,-0.002179413102567196,-0.0016098900232464075
1740933587780656600,10.32265673828125,-0.0008353129960596561,-0.0006034839898347855,-0.000728403334505856
1740933587790623700,10.332623779296876,-0.0008483626879751682,-0.0026570470072329044,-0.0006011042278259993
1740933587800589600,10.342589599609376,0.00010590930469334126,0.00012701470404863358,0.001983139431104064
1740933587810556700,10.352556640625,0.002238568617030978,-0.0008341195061802864,-0.0009617841569706798
1740933587820522500,10.3625224609375,-0.0006266424898058176,-0.0008560847491025925,0.0018445425666868687
1740933587830489600,10.372489501953124,0.0012855071108788252,0.00007628742605447769,-0.0004750706721097231
1740933587840456400,10.38245654296875,-0.001690761186182499,-0.0004622330889105797,-0.004027230199426413
1740933587850422500,10.392422607421874,0.00122113898396492,-0.0014856858178973198,-0.0007733798120170832
1740933587860389400,10.402389404296875,-0.000760246766731143,-0.0013224352151155472,-0.0006713137263432145
1740933587870355700,10.412355712890625,0.00048105267342180014,-0.0013029943220317364,0.0007039427291601896
1740933587880322600,10.422322509765625,0.0026794150471687317,-0.002173762768507004,-0.0007656564703211188
1740933587890289700,10.43228955078125,0.000410401844419539,0.0025823768228292465,0.002512961160391569
1740933587900255500,10.44225537109375,0.0010257915128022432,0.00046277232468128204,-0.0006819177069701254
1740933587910222600,10.45222265625,0.0016803964972496033,-0.0009620189666748047,0.0005452668992802501
1740933587920188700,10.462188720703125,-0.00138763221912086,0.0022378405556082726,0.000590955838561058
1740933587930155500,10.472155517578125,-0.0007031997665762901,0.0019419630989432335,0.0008977518882602453
1740933587940121600,10.48212158203125,0.0014115865342319012,0.00005708448588848114,-0.0012300903908908367
1740933587950088400,10.49208837890625,0.0013559265062212944,0.000417943112552166,0.0011172197991982102
1740933587960055600,10.5020556640625,-0.00026466301642358303,0.0026206225156784058,-0.0004913299926556647
1740933587970021400,10.512021484375,-0.00023456942290067673,0.00006265658885240555,-0.0034690103493630886
1740933587979988500,10.521988525390626,-0.00008232984691858292,0.0011703809723258018,-0.0003711669414769858
1740933587989954600,10.53195458984375,-0.00019950908608734608,-0.0019135596230626106,-0.0001224277075380087
1740933587999921700,10.541921630859376,0.0003050094237551093,-0.0017962157726287842,-0.0010233130306005478
1740933588009888800,10.551888671875,0.002505313139408827,-0.0006609102711081505,0.001991651486605406
1740933588019854600,10.5618544921875,-0.0010275114327669144,0.0020629027858376503,-0.001093484926968813
1740933588029821700,10.57182177734375,-0.0026903890538960695,0.00025727972388267517,-0.0008990742499008775
1740933588039787500,10.58178759765625,-0.0010385341010987759,0.0017187939956784248,-0.0025509910192340612
1740933588049754600,10.591754638671874,-0.0026406918186694384,0.0008077267557382584,-0.0012540316674858332
1740933588059720400,10.601720458984374,-0.0008724948856979609,-0.0014836546033620834,0.0009314692579209805
1740933588069687600,10.6116875,-0.0026994231157004833,0.00011770427227020264,-0.0008949264883995056
1740933588079654400,10.621654296875,0.0033017245586961508,-0.00044249091297388077,0.0036047843750566244
1740933588089620500,10.631620361328125,0.0029105062130838633,0.0003545936197042465,0.0013126018457114697
1740933588099587300,10.64158740234375,0.0008486484875902534,0.00037376582622528076,0.0004954545293003321
1740933588109553700,10.6515537109375,-0.000015547266229987144,0.0003367476165294647,0.00018466365872882307
1740933588119520800,10.661520751953125,0.0009011343354359269,-0.0017246697098016739,-0.0009571893606334925
1740933588129487600,10.671487548828125,0.0007115172920748591,-0.00044741760939359665,0.0016340663423761725
1740933588139453700,10.68145361328125,-0.0015561997424811125,-0.0007931888103485107,-0.0014511874178424478
1740933588149420500,10.691420654296875,0.00048138468991965055,-0.0008752141147851944,0.0022151863668113947
1740933588159386600,10.70138671875,0.0003498976584523916,-0.000696912407875061,-0.0021765856072306633
1740933588169353500,10.711353515625,0.001821027835831046,0.0012234924361109734,-0.0010346220806241035
1740933588179319600,10.721319580078125,-0.0015449202619493008,-0.0016921404749155045,0.0011100556002929807
1740933588189286400,10.731286376953125,-0.00008284486830234528,-0.0014071823097765446,0.0004096441844012588
1740933588199253500,10.74125341796875,-0.0014949440956115723,-0.0026813941076397896,0.003904246026650071
1740933588209219300,10.75121923828125,0.0006361173000186682,0.002454245463013649,0.0006322862464003265
1740933588219186400,10.7611865234375,0.00013472128193825483,0.0009958911687135696,-0.001264741295017302
1740933588229152500,10.771152587890626,0.0008753463625907898,-0.0013580764643847942,0.0017227926291525364
1740933588239119600,10.78111962890625,0.0007121855160221457,-0.0027136020362377167,-0.001880978001281619
1740933588249086700,10.791086669921874,-0.0010108796413987875,0.002068636007606983,0.000757681904360652
1740933588259052500,10.801052490234374,0.001170281320810318,0.0009863590821623802,0.001277569099329412
1740933588269019600,10.81101953125,0.0000416336115449667,-0.001968950964510441,0.00018354255007579923
1740933588278985500,10.8209853515625,0.0005293276626616716,-0.0008271830156445503,0.0003337031521368772
1740933588288952600,10.83095263671875,0.0004728686762973666,0.0006069289520382881,0.0026804807130247355
1740933588298918400,10.84091845703125,-0.0005334627348929644,-0.001550867222249508,0.0009149248944595456
1740933588308885500,10.850885498046875,0.0025198515504598618,0.0003474336117506027,-0.002940000733360648
1740933588318852600,10.8608525390625,-0.0008718634489923716,-0.0003959592431783676,-0.00036531678051687777
1740933588328818400,10.870818359375,0.00216280878521502,-0.0015600267797708511,0.0005675885477103293
1740933588338785500,10.88078564453125,0.0000603941734880209,-0.0006488114595413208,-0.00019450389663688838
1740933588348751600,10.890751708984375,0.0013086178805679083,-0.00003282260149717331,0.002003669273108244
1740933588358718700,10.90071875,0.0008957494283095002,0.0011901557445526123,-0.0009933249093592167
1740933588368684500,10.9106845703125,-0.0005191881209611893,-0.002788340672850609,0.0007044401718303561
1740933588378651600,10.920651611328125,-0.00021248729899525642,-0.0013517700135707855,-0.0027910368517041206
1740933588388618500,10.930618408203125,-0.0018543261103332043,-0.000019390136003494263,-0.000727353326510638
1740933588398584600,10.94058447265625,-0.00001698313280940056,-0.000017180107533931732,-0.000108470325358212
1740933588408551400,10.950551513671876,0.002382525010034442,-0.0007873661816120148,0.0011546669993549585
1740933588418517500,10.960517578125,-0.0004837487358599901,0.0006225202232599258,-0.0003607344697229564
1740933588428484400,10.970484375,0.0023112387862056494,-0.0008885576389729977,0.0018725924892351031
1740933588438451500,10.980451416015624,0.0010211863555014133,0.0004783477634191513,-0.004121881909668446
1740933588448417500,10.99041748046875,0.0018579516327008605,0.0008490597829222679,-0.0009295507334172726
1740933588458384600,11.000384521484374,-0.00262728170491755,-0.001633422914892435,0.0005489080213010311
1740933588468350700,11.010350830078124,-0.002396651776507497,-0.0012621781788766384,-0.0017158440314233303
1740933588478317600,11.020317626953124,-0.0003324626013636589,0.00009748246520757675,-0.00023815734311938286
1740933588488283600,11.03028369140625,-0.0002112886868417263,-0.0015840372070670128,-0.0007702569128014147
1740933588498250500,11.04025048828125,0.00013366085477173328,-0.000028339214622974396,0.002058484824374318
1740933588508217600,11.050217529296875,0.0012729611480608582,0.00022199749946594238,0.00044913653982803226
1740933588518183400,11.060183349609375,0.0012823387514799833,-0.0017986060120165348,0.002333342097699642
1740933588528150500,11.070150634765625,-0.0005326056852936745,0.0009609619155526161,-0.0006201034993864596
1740933588538116400,11.080116455078125,0.0012240458745509386,0.0020625917240977287,-0.0007959735230542719
1740933588548083500,11.09008349609375,-0.0005141994915902615,0.0021502096205949783,-0.001218617195263505
1740933588558050600,11.100050537109375,-0.0024251360446214676,-0.000551542267203331,-0.0006053318502381444
1740933588568016600,11.1100166015625,-0.0013446914963424206,0.0013970928266644478,-0.001118522952310741
1740933588577983700,11.119983642578125,-0.001641640905290842,0.00021082907915115356,0.002858616877347231
1740933588587949600,11.129949462890625,0.0012593405554071069,-0.0006693452596664429,0.0003267498395871371
1740933588597916700,11.139916748046875,0.0014137148391455412,0.0007871454581618309,0.0021097559947520494
1740933588607882000,11.149882080078125,-0.002333619398996234,0.00037834979593753815,-0.000849282369017601
1740933588617849000,11.15984912109375,-0.0009133238345384598,0.0017865253612399101,-0.0004326488415244967
1740933588627816000,11.16981591796875,-0.0021737979259341955,-0.00111738545820117,0.000740207324270159
1740933588637782000,11.179781982421876,0.0010127952555194497,-0.0007017916068434715,0.0002486724406480789
1740933588647748900,11.189748779296876,0.0012793776113539934,-0.001222706399857998,0.005522263702005148
1740933588657715200,11.199715087890626,-0.0009050723165273666,0.0013522934168577194,0.002163728466257453
1740933588667682000,11.20968212890625,0.0004520745715126395,0.00042418111115694046,0.00022255032672546804
1740933588677648100,11.219648193359374,-0.00006260559894144535,0.0013822605833411217,0.003499068785458803
1740933588687615200,11.229615234375,0.00010064616799354553,-0.0028963740915060043,-0.002153756795451045
1740933588697582000,11.23958203125,-0.0011475651990622282,-0.000997206661850214,0.0006026062183082104
1740933588707548200,11.249548095703124,0.0017227897187694907,0.0010046912357211113,0.000479568203445524
1740933588717515000,11.259514892578125,-0.0005560421850532293,-0.0009462097659707069,0.002601389540359378
1740933588727481000,11.269481201171875,-0.00168868456967175,0.001434922218322754,-0.002380852121859789
1740933588737448000,11.279447998046875,0.0011493052588775754,-0.0015377397648990154,-0.0003206233377568424
1740933588747415000,11.2894150390625,0.0006286572897806764,0.0016953377053141594,-0.0010556557681411505
1740933588757380900,11.299380859375,0.0003309748135507107,0.00004445388913154602,-0.00026533345226198435
1740933588767348000,11.309347900390625,0.0014862541574984789,-0.0022679693065583706,0.001140016596764326
1740933588777314000,11.31931396484375,-0.00245870859362185,0.00004431325942277908,0.0027065910398960114
1740933588787281200,11.32928125,0.0024494973476976156,-0.0013383999466896057,0.00014223312609829009
1740933588797247200,11.339247314453125,0.0011487449519336224,-0.0011429511941969395,-0.0012325156712904572
1740933588807214000,11.349214111328125,-0.0004462222568690777,-0.0012161880731582642,-0.001975537510588765
1740933588817181200,11.35918115234375,-0.0002773439045995474,0.00029346905648708344,-0.0009670995641499758
1740933588827147000,11.36914697265625,-0.0024289118591696024,0.0004913415759801865,0.000428663071943447
1740933588837114000,11.379114013671876,0.00027307705022394657,0.0004992671310901642,-0.0016268885228782892
1740933588847080000,11.389079833984376,0.00031941605266183615,0.00004226900637149811,0.00033346429700031877
1740933588857047000,11.399047119140626,0.00013286119792610407,-0.0005105026066303253,-0.0001222345745190978
1740933588867012900,11.409012939453126,-0.0006586303934454918,0.0000045532360672950745,-0.0018948346842080355
1740933588876980000,11.41897998046875,0.001432599499821663,0.0007963059470057487,-0.00006491932435892522
1740933588886947000,11.428947021484374,-0.0007264250889420509,0.00318249873816967,-0.000553609395865351
1740933588896913200,11.4389130859375,-0.0012919127475470304,0.0009988043457269669,0.00221182219684124
1740933588906880300,11.44888037109375,-0.003491150913760066,-0.0023317448794841766,-0.0011245862115174532
1740933588916846000,11.45884619140625,0.0005302201025187969,-0.00017607863992452621,0.0006330532487481833
