time,seconds_elapsed,z,y,x
1740933577505084200,0.047084228515625,-0.049742812812328334,-0.048577678023092444,0.014121820525964722
1740933577515051000,0.057051025390625,-0.04959492877423763,-0.061826834767218675,0.013910808123787864
1740933577525017000,0.06701708984375,-0.05737549964785576,-0.03654514879342168,-0.012424040164751932
1740933577534984000,0.07698388671875,-0.05094049816429615,-0.04390227009057998,-0.0037606871157244313
1740933577544951000,0.086950927734375,-0.07189151625633239,-0.03439684818573296,-0.0016986651355575303
1740933577554916900,0.096916748046875,-0.06874854205548762,-0.0430973286495544,0.004351228895888198
1740933577564884000,0.106884033203125,-0.04765022444725037,-0.04125274196248501,-0.005176405982411233
1740933577574850000,0.11685009765625,-0.05483575203716755,-0.024218166661821305,-0.004332725124817807
1740933577584817000,0.12681689453125,-0.06201952606141567,-0.04241727396352216,0.008648714885610389
1740933577594784000,0.136783935546875,-0.061571782293915744,-0.04999793835086748,0.013799718140350886
1740933577604750000,0.14675,-0.050201662495732303,-0.029539215554110706,0.01750357648532372
1740933577614717200,0.15671728515625,-0.05290098458230495,-0.03687956837955862,-0.0006051285695866681
1740933577624684300,0.166684326171875,-0.05200023635029793,-0.04477156373839825,0.012688984986051218
1740933577634650000,0.176650146484375,-0.041679333344101906,-0.03830908972602337,0.0017762821076554246
1740933577644617200,0.1866171875,-0.06128595108985901,-0.03841307982346043,0.011090100705338408
1740933577654583300,0.196583251953125,-0.05440320583879947,-0.02833752988046035,0.003938503926130943
1740933577664550400,0.20655029296875,-0.040484570601582524,-0.04386595666818321,0.006580005153041565
1740933577674517200,0.216517333984375,-0.03240589356422424,-0.053665027757361525,-0.010418779598321997
1740933577684483300,0.2264833984375,-0.05170797540545463,-0.02631280085351318,-0.020359954580420163
1740933577694450200,0.2364501953125,-0.0505114590972662,-0.0370860142044723,0.004303370024525793
1740933577704416300,0.246416259765625,-0.047371992027759546,-0.03902403306234628,0.005385458181297872
1740933577714383000,0.256383056640625,-0.03585106558203697,-0.02790750443274155,-0.003146597779903095
1740933577724350200,0.26635009765625,-0.03675006024837494,-0.04326075731664896,0.021034999731194694
1740933577734316000,0.27631591796875,-0.04438216256201267,-0.04682095228256657,0.016745096543018007
1740933577744283100,0.286283203125,-0.04827390930354595,-0.03704765495546162,0.006613993045967072
1740933577754250200,0.296250244140625,-0.05515899264216423,-0.0347015667533502,-0.0021910974281548986
1740933577764216000,0.306216064453125,-0.042886955568194385,-0.03582905467962846,0.007927930896967882
1740933577774183200,0.31618310546875,-0.04707739299535751,-0.031168351125903427,-0.0032218013159174006
1740933577784149200,0.326149169921875,-0.04887362876236438,-0.0408557420015335,0.011265437864291015
1740933577794116400,0.336116455078125,-0.04932312609553337,-0.0414281350620091,0.016735664277680917
1740933577804083200,0.346083251953125,-0.05516366881728172,-0.03807798438388854,-0.0004522989283199422
1740933577814049300,0.35604931640625,-0.03690612759292126,-0.04023711691284552,-0.003276104769442463
1740933577824016400,0.366016357421875,-0.03840075006484985,-0.03567919788016006,0.0217383782105986
1740933577833982200,0.375982177734375,-0.05605740278661251,-0.04243040743973106,-0.0023912151186261323
1740933577843949300,0.38594921875,-0.04064297603368759,-0.05493550435090437,0.014034723339468473
1740933577853916200,0.395916259765625,-0.05082125569880008,-0.048064413005020463,-0.017194898695219306
1740933577863882200,0.40588232421875,-0.07192308043837548,-0.038348709350358695,0.008665892065985826
1740933577873849000,0.41584912109375,-0.05082534735202789,-0.031096655862871556,0.0068901042903191404
1740933577883816200,0.425816162109375,-0.050824178308248515,-0.03833608733080327,0.00663423211639747
1740933577893782000,0.435781982421875,-0.04648351875543594,-0.036125882201734925,0.008662469416327076
1740933577903749000,0.4457490234375,-0.03899813143610954,-0.03134116867585107,0.013637013275752542
1740933577913715200,0.455715087890625,-0.05156652110815048,-0.037526323584187775,0.010790573194425087
1740933577923682300,0.465682373046875,-0.05202011009454727,-0.033866613766551014,0.013346883780846837
1740933577933649400,0.4756494140625,-0.05576221923232078,-0.029316037790104745,0.009147189901571255
1740933577943615200,0.485615234375,-0.05546411306858062,-0.028521453346312044,0.010154613378446083
1740933577953582300,0.495582275390625,-0.05022445884943008,-0.04582103625871241,0.001159140014933655
1740933577963549200,0.505549072265625,-0.05082534735202789,-0.04706798584619537,-0.006484064789675175
1740933577973515300,0.515515380859375,-0.03691255733370781,-0.031784692925959826,-0.002971322269743541
1740933577983482000,0.525482177734375,-0.044997664111852645,-0.05652653640201315,0.0067157672117871695
1740933577993448200,0.5354482421875,-0.059218497166037554,-0.048819944080058485,-0.015450596328137908
1740933578003415000,0.5454150390625,-0.07477963891327381,-0.04528486528908834,-0.0030652396393823435
1740933578013382100,0.555382080078125,-0.054579146927595135,-0.040478761915303765,-0.006508138643362326
1740933578023348200,0.56534814453125,-0.0318324775904417,-0.04505229864222929,-0.006680670782231027
1740933578033315000,0.575315185546875,-0.028694764086604117,-0.04601175479153171,0.018805313583521638
1740933578043282200,0.5852822265625,-0.03887187470793724,-0.04685333844851702,0.0029813550399907397
1740933578053248300,0.595248291015625,-0.05054477684497833,-0.035420126818865534,0.001534619980532443
1740933578063215400,0.60521533203125,-0.050849897271394724,-0.050423013628832995,0.003116599933861289
1740933578073181200,0.61518115234375,-0.04172200344204902,-0.04862266794228926,-0.0014578854994906577
1740933578083148300,0.625148193359375,-0.050554129195213314,-0.029453546564653516,0.005312926092982524
1740933578093115400,0.635115478515625,-0.04351940825283527,-0.038084468923602253,0.007392489438061602
1740933578103081200,0.645081298828125,-0.04217559242844581,-0.03241709081167355,-0.005475468844088027
1740933578113048300,0.65504833984375,-0.052502925175428386,-0.03829538999423385,-0.017573888075444848
1740933578123015200,0.66501513671875,-0.04771744446456432,-0.03292690349733457,-0.006641898257978027
1740933578132981200,0.674981201171875,-0.051311669564247125,-0.05044789234176278,0.0062697564603586215
1740933578142948000,0.684947998046875,-0.047722120639681814,-0.030899671986047178,0.0215048754154006
1740933578152914200,0.6949140625,-0.05056932676434517,-0.04195162921315059,0.013052079252467956
1740933578162881000,0.704881103515625,-0.043238253223896024,-0.0384588186613284,0.022859125868836417
1740933578172848000,0.71484814453125,-0.055061377486586564,-0.027899375925213098,0.004730592735449317
1740933578182814200,0.724814208984375,-0.04967559279501438,-0.03234948720186948,0.00038407883058534935
1740933578192781300,0.73478125,-0.06000467910766601,-0.02766595076182857,0.005528682027291506
1740933578202748400,0.74474853515625,-0.05551672003865242,-0.03614171909168362,-0.0007696041245188098
1740933578212714200,0.75471435546875,-0.05162848042845726,-0.03529929518448189,-0.021440477542835287
1740933578222681300,0.764681396484375,-0.03696691786944866,-0.04577104137083515,-0.0029091072211100254
1740933578232647200,0.774647216796875,-0.01856441521644592,-0.028440296135190873,0.0026248948686930815
1740933578242614300,0.7846142578125,-0.03323240751624107,-0.038742311777826395,-0.014955099862196947
1740933578252581000,0.7945810546875,-0.03398585623204708,-0.03012238573692739,-0.014770670647913356
1740933578262547200,0.804547119140625,-0.03204699712395668,-0.02684361979458481,-0.007316824677743716
1740933578272514000,0.81451416015625,-0.03758768011629581,-0.03863952725678682,-0.006652360286487965
1740933578282480000,0.824480224609375,-0.036546062108874316,-0.05288839909536764,-0.003041068745928351
1740933578292447200,0.834447265625,-0.06318623175323008,-0.04954195647798478,-0.011091284590493886
1740933578302414000,0.8444140625,-0.09131693221628666,-0.03465177279487252,-0.014049005309859057
1740933578312380400,0.85438037109375,-0.09939619377553463,-0.046067613164614885,-0.012541563313908408
1740933578322347300,0.86434716796875,-0.08473404669463634,-0.050300830287579444,0.009570892923069186
1740933578332314400,0.874314453125,-0.03281155175566673,-0.039921036700997496,0.007128416833019582
1740933578342280200,0.8842802734375,-0.02727905206978321,-0.028365988789964467,0.018905426656862255
1740933578352247300,0.894247314453125,-0.02952712325751781,-0.022239085141196845,0.010204887969180709
1740933578362214400,0.90421435546875,-0.05451894117295742,-0.03007237258274108,0.026533905391441657
1740933578372180200,0.91418017578125,-0.041355508217215536,-0.03631225335299969,0.019521204484626648
1740933578382147300,0.924147216796875,-0.03567512449324131,-0.01823649843633175,0.013221608866786118
1740933578392113200,0.934113037109375,-0.023711714977025983,-0.03633537850026041,0.002729630459868349
1740933578402080300,0.944080322265625,-0.0603799421608448,-0.0426038460441865,-0.01307329671207699
1740933578412047000,0.954047119140625,-0.07878945907652378,-0.055136104956921186,-0.009824430434365058
1740933578422013200,0.96401318359375,-0.07983926039040089,-0.043954730930179355,-0.013666685753164346
1740933578431980000,0.97397998046875,-0.08253507534563541,-0.04295139910653233,-0.008302427906810772
1740933578441947100,0.983947021484375,-0.0651771133095026,-0.06553440231457353,-0.008124241203645943
1740933578451913200,0.993913330078125,-0.05081307239234447,-0.024790121330879628,0.025013136981392743
1740933578461880300,1.00388037109375,-0.05320785857439041,-0.0193916050218977,0.01571572381252772
1740933578471846100,1.01384619140625,-0.04797346505224705,-0.015389858567249028,0.01654928970148321
1740933578481813200,1.023813232421875,-0.06383680461645126,-0.031163620151858775,0.010468304128741146
1740933578491780400,1.0337802734375,-0.05635784703791141,-0.02925079053416848,0.01749327314537368
1740933578501746200,1.04374609375,-0.04962766200006008,-0.04497340645343065,0.014004135263315402
1740933578511713300,1.05371337890625,-0.05397124416232109,-0.04433998565440997,0.016331537031265907
1740933578521680100,1.06368017578125,-0.05172843367159366,-0.03301828984152525,0.02029938349960139
1740933578531646200,1.073646240234375,-0.056365445822477336,-0.018883125776797533,-0.007917492842988576
1740933578541613000,1.083613037109375,-0.05651742151379585,-0.032091603450663385,-0.007224058085575234
1740933578551579100,1.0935791015625,-0.04798574001193046,-0.03248891393886879,-0.007826487807999365
1740933578561546200,1.103546142578125,-0.0556178423255682,-0.04278137630186975,-0.012905562904267571
1740933578571513000,1.11351318359375,-0.06175532216727733,-0.041345973203890024,-0.00016923164515173994
1740933578581479400,1.1234794921875,-0.05786532899141311,-0.04250769219333306,-0.011885777702741324
1740933578591446300,1.1334462890625,-0.04395020088553429,-0.03377225001398474,0.015238761942053678
1740933578601412900,1.143412841796875,-0.0453004464507103,-0.038089163365028794,0.019696876145363786
1740933578611378700,1.153378662109375,-0.05622048439383506,-0.037211412416119125,0.009210532894788775
1740933578621345800,1.163345703125,-0.05562018041312694,-0.04535528191048652,0.026426067952660375
1740933578631311600,1.1733115234375,-0.039161213043332095,-0.026019918854162095,0.014941043937380891
1740933578641278700,1.18327880859375,-0.05861351701021194,-0.04114151840666309,-0.0006942464665218722
1740933578651245600,1.19324560546875,-0.04155658374726772,-0.03628974926024675,0.004697464500693604
1740933578661211600,1.203211669921875,-0.053230654928088185,-0.028375925662089137,-0.020354625384754035
1740933578671178500,1.213178466796875,-0.03437573233246803,-0.02706869725473225,-0.010241583842423279
1740933578681145600,1.2231455078125,-0.05907178217172623,-0.04324559628013521,-0.01693730720495805
1740933578691111700,1.233111572265625,-0.06475918015837669,-0.047817671702336514,-0.00825499144384521
1740933578701078500,1.24307861328125,-0.06296177534759044,-0.0402305593078956,-0.011329437302990117
1740933578711044900,1.253044921875,-0.038872459229826926,-0.03863044890118763,0.0042022602956974875
1740933578721011700,1.26301171875,-0.05144260246753692,-0.038734859123732895,0.014341128115740138
1740933578730978800,1.272978759765625,-0.05308920063078403,-0.013261011578701435,0.005669772140058921
1740933578740944600,1.282944580078125,-0.052940147548913956,-0.04032442987011745,0.008827008903340901
1740933578750911700,1.292911865234375,-0.0469517207890749,-0.035807555233873425,0.0017650414777221157
1740933578760878600,1.302878662109375,-0.03842296189665794,-0.02786814053673297,0.011048294832138345
1740933578770844700,1.3128447265625,-0.07298983288705349,-0.04052941439030692,0.005038852683734148
1740933578780811800,1.322811767578125,-0.057281976145505904,-0.02283529746867716,0.01396288194596418
1740933578790777600,1.332777587890625,-0.05578560010790824,-0.04018169693117961,-0.004653418721345951
1740933578800744700,1.34274462890625,-0.05967617780566215,-0.04316577250957489,0.00019330435719457453
1740933578810711600,1.352711669921875,-0.06790507696866989,-0.025255108494125305,0.010329218743392266
1740933578820677600,1.362677734375,-0.05817804820239544,-0.028545236080698668,-0.015687355092924554
1740933578830644500,1.37264453125,-0.03722995271980762,-0.030446283929049966,-0.011408795282669597
1740933578840611600,1.382611572265625,-0.047853053542971605,-0.041276963088288904,0.007700427442649379
1740933578850577700,1.39257763671875,-0.04860182608366012,-0.022396924317721275,0.013543195229169214
1740933578860544800,1.402544677734375,-0.043965398454666134,-0.02166473758565262,-0.001597666146227857
1740933578870510600,1.412510498046875,-0.05892857430875301,-0.04234581616250798,-0.007002632745594019
1740933578880477700,1.422477783203125,-0.05922843403816223,-0.04382507666852325,-0.005824861095426604
1740933578890444800,1.43244482421875,-0.05818213985562324,-0.03988174587022513,0.013935709669603965
1740933578900410600,1.44241064453125,-0.07464227626919746,-0.041225013705343004,0.006291408886451973
1740933578910377700,1.452377685546875,-0.079881930488348,-0.040818533529993144,0.008850953751220367
1740933578920344600,1.462344482421875,-0.058632806232571597,-0.03607084581255913,0.00745789309926913
1740933578930310700,1.472310546875,-0.06012918227016925,-0.030682668234501033,0.0016619898119126445
1740933578940277500,1.482277587890625,-0.044267596271634096,-0.026199330541677772,0.017987389363336843
1740933578950243600,1.49224365234375,-0.04665829080045223,-0.029647023310139773,0.006273448538075899
1740933578960210700,1.502210693359375,-0.04920154554247856,-0.03132425407366827,-0.0031964054381125604
1740933578970177500,1.512177490234375,-0.04890460842251777,-0.05035055118082091,-0.00005684361212770454
1740933578980143900,1.522143798828125,-0.05099953487515449,-0.028060576102603225,-0.006230272691696882
1740933578990110700,1.53211083984375,-0.06940788274705409,-0.013096468666754662,-0.014537097070767776
1740933579000077800,1.542077880859375,-0.04471826264858245,-0.04059491737456992,0.0023642723127733915
1740933579010043600,1.552043701171875,-0.04741290856003761,-0.038750221089646215,-0.021298173862160184
1740933579020010800,1.5620107421875,-0.0650724838912487,-0.024868684726115316,0.0001511331578134559
1740933579029976600,1.5719765625,-0.07779401829838753,-0.03612632059315219,-0.003984336378832813
1740933579039943700,1.581943603515625,-0.056097150275111196,-0.028170009560137984,0.005434295441838912
1740933579049910800,1.591910888671875,-0.049366380715370174,-0.019829886841308323,0.0037319667696719986
1740933579059876600,1.601876708984375,-0.051907297369837756,-0.035366807462740686,0.023579638146131763
1740933579069843700,1.61184375,-0.06343289999067783,-0.037017625143378974,0.01944136929762317
1740933579079810600,1.621810546875,-0.05699965207278728,-0.03769329591523856,0.013035708072979468
1740933579089776600,1.631776611328125,-0.05235679470300674,-0.043089455870352684,0.0000994178119522985
1740933579099743500,1.641743408203125,-0.05340308888554573,-0.038362007223349065,-0.004706719811161747
1740933579109709800,1.651709716796875,-0.05070844297409057,-0.0458698986354284,0.0028707924962276593
1740933579119676700,1.6616767578125,-0.0442804557532072,-0.030775369752943513,-0.008904420379461953
1740933579129643800,1.671643798828125,-0.043536943909525866,-0.029201215771399436,-0.012438827883574413
1740933579139609600,1.681609619140625,-0.07122165417075156,-0.021796236744523047,-0.017435596132895442
1740933579149576700,1.69157666015625,-0.04892389764487743,-0.03562193300127983,-0.006412545339867938
1740933579159543800,1.701543701171875,-0.05521159961223602,-0.04238282370464876,-0.004958802867599297
1740933579169509600,1.711509521484375,-0.058656771630048746,-0.04834860024126246,-0.0041398397510871284
1740933579179476700,1.721476806640625,-0.052072717064619065,-0.03217652352144942,0.005814034882379928
1740933579189442600,1.731442626953125,-0.050879123365879055,-0.02855179368564859,0.01885941382435849
1740933579199409700,1.74140966796875,-0.05132569808959961,-0.03165516652846709,0.010428626280545722
1740933579209376500,1.75137646484375,-0.0493827473282814,-0.03108509328924119,0.024772868801979347
1740933579219342600,1.761342529296875,-0.052528644138574596,-0.04139216869948432,0.018653616453416177
1740933579229309700,1.771309814453125,-0.06704524526894093,-0.02546380107505247,-0.0066716392340487795
1740933579239276500,1.781276611328125,-0.06120820967853069,-0.03372886752998456,-0.0023014807337603995
1740933579249243000,1.791242919921875,-0.07303133394122123,-0.025538711208477616,-0.018113488544593565
1740933579259209700,1.801209716796875,-0.05402502017617225,-0.0304478548316285,-0.002704168366693193
1740933579269175800,1.81117578125,-0.06255436359047889,-0.04241078942380845,-0.005672254074801457
1740933579279142700,1.821142578125,-0.05297697242796421,-0.04902195119187235,-0.003188877435494214
1740933579289109800,1.83110986328125,-0.06928454862833022,-0.04256835460569709,-0.010380811933311633
1740933579299075600,1.84107568359375,-0.04638999525308609,-0.0338671617558226,-0.0013300601520284544
1740933579309042700,1.851042724609375,-0.06075754330158233,-0.04125316208759323,0.017711820400034776
1740933579319008500,1.861008544921875,-0.05776479122638702,-0.031208829266764222,-0.00910899390769773
1740933579328975600,1.8709755859375,-0.0531254409879446,-0.02511067678844556,0.007006103344314033
1740933579338942700,1.880942626953125,-0.053124856466054915,-0.026789387123007324,-0.010149993143900065
1740933579348908500,1.890908447265625,-0.0706318715840578,-0.04043280388172716,-0.0012036470185848884
1740933579358875600,1.900875732421875,-0.07676818238198757,-0.02330622118236497,0.011213791017088805
1740933579368842500,1.910842529296875,-0.07033434994220733,-0.04977938196305185,-0.005488621728250291
1740933579378808800,1.920808837890625,-0.05372399140298366,-0.04500767404921353,-0.013301747731177602
1740933579388775700,1.930775634765625,-0.04579378292560577,-0.02386182750482112,-0.004419093942240579
1740933579398741800,1.94074169921875,-0.05821253499388694,-0.04696215085154399,-0.01983954058564268
1740933579408708600,1.95070849609375,-0.049832244661450385,-0.03142559555629268,-0.01635524898370495
1740933579418675700,1.96067578125,-0.05342471619546413,-0.038697084396611896,-0.0058982562668446915
1740933579428641800,1.970641845703125,-0.051776364466547965,-0.04926816277159378,-0.0059880534421477925
1740933579438608600,1.980608642578125,-0.0595563508182764,-0.029132296987343577,-0.0045214012559561525
1740933579448575700,1.99057568359375,-0.05267535913288593,-0.015091807202436028,-0.013614382460480554
1740933579458541600,2.00054150390625,-0.061355509194731706,-0.02972896597255021,0.011147279960894957
1740933579468508700,2.0105087890625,-0.05910919157266616,-0.03682497038180008,-0.0022626214445394
1740933579478474500,2.020474609375,-0.04578852222859859,-0.03351891457373276,0.0008124546022678259
1740933579488441600,2.030441650390625,-0.058656771630048746,-0.03311827961727977,0.010298155743203823
1740933579498408700,2.04040869140625,-0.049530046844482416,-0.02750690600890666,0.0077564673371787645
1740933579508374800,2.050374755859375,-0.04549684580564499,-0.031665322596300394,0.027067614975920876
1740933579518342000,2.060341796875,-0.051933016332983965,-0.019780019817594436,0.015281606711581115
1740933579528307700,2.0703076171875,-0.04833996027708053,-0.032248766773752865,0.020271173468558116
1740933579538274800,2.08027490234375,-0.06869184343218802,-0.026524525641743093,0.01275988452299498
1740933579548241700,2.09024169921875,-0.06105740303099155,-0.024535507248993962,-0.01612627851644065
1740933579558207700,2.100207763671875,-0.053579614496231075,-0.04381473793759942,-0.0037205788676219526
1740933579568174600,2.110174560546875,-0.05716916342079639,-0.044787181432638316,-0.0030700071460450997
1740933579578140700,2.120140625,-0.06988835974037647,-0.04013763859374449,-0.016828503935085608
1740933579588107500,2.130107421875,-0.06494973429441452,-0.038056411872897294,-0.010446893731242744
1740933579598074600,2.14007470703125,-0.05731821650266647,-0.048256538043636825,-0.0032091039478371382
1740933579608040700,2.150040771484375,-0.057167994377017015,-0.011163089451380073,0.0006326661721279378
1740933579618007600,2.160007568359375,-0.04070844248533249,-0.029821795355156062,-0.002776724429539172
1740933579627974700,2.169974609375,-0.0493868389815092,-0.035695509694144124,0.007911331388616235
1740933579637940700,2.179940673828125,-0.05013794960975647,-0.029268435788713396,0.007998164855275535
1740933579647907800,2.189907958984375,-0.06973989118039607,-0.02929744268748909,0.004433016294671688
1740933579657873700,2.199873779296875,-0.04639584047198295,-0.026772362922970205,0.0008355409336218145
1740933579667840800,2.2098408203125,-0.04759469486773014,-0.03298741977922618,-0.0069069983429042615
1740933579677807900,2.219807861328125,-0.06779518685340881,-0.03809714574208483,-0.021120974681328515
1740933579687773700,2.229773681640625,-0.05896189205646515,-0.02378755669221282,-0.010379068642441416
1740933579697740800,2.23974072265625,-0.05118307474851608,-0.03581979366093874,-0.015588344847992992
1740933579707707600,2.249707763671875,-0.058365095207095145,-0.03838405465837568,-0.026541479059832635
1740933579717673700,2.259673828125,-0.046692777591943735,-0.02882635457701981,-0.012874223626154707
1740933579727640600,2.269640625,-0.0487900421321392,-0.03469024164173752,-0.012992445461632451
1740933579737606700,2.279606689453125,-0.05896539918780327,-0.020631248085759578,-0.014208805831318021
1740933579747573500,2.289573486328125,-0.06195639769732952,-0.022948603383731097,-0.006681186805461765
1740933579757540600,2.29954052734375,-0.055524318823218344,-0.035704332321416586,0.013409130795521196
1740933579767507000,2.3095068359375,-0.06180968270301818,-0.035674174645170566,0.029847532584611324
1740933579777473800,2.319473876953125,-0.057473114803433416,-0.03854242355786264,0.003372847708762856
1740933579787439900,2.32943994140625,-0.046702129942178726,-0.03078527009245008,0.004166236850956921
1740933579797406700,2.33940673828125,-0.047452071526646614,-0.025159794893488286,0.0067748141974443565
1740933579807373800,2.349373779296875,-0.06077274087071419,-0.027868779857549816,0.0021258273393323177
1740933579817339600,2.359339599609375,-0.06047521922886371,-0.03600700506241992,0.0064901874281407795
1740933579827306800,2.369306640625,-0.058682490593194955,-0.040971824395563454,-0.008674819724535337
1740933579837273900,2.37927392578125,-0.05823357778191566,-0.043216991240158674,-0.007357700110826408
1740933579847239700,2.38923974609375,-0.04551671954989433,-0.02798283469127491,0.005667152066354174
1740933579857206800,2.399206787109375,-0.04910977560579777,-0.03538500070655718,-0.0006723086293495725
1740933579867172600,2.409172607421875,-0.042077392750978465,-0.03551766890920698,-0.007918068231723736
1740933579877139700,2.4191396484375,-0.04940612820386886,-0.03790447271419689,-0.018924258079851278
1740933579887106600,2.4291064453125,-0.06900806977450848,-0.03239464151784777,-0.015654823938146
1740933579897073000,2.439072998046875,-0.06107786129713058,-0.03295485095018521,-0.005110770567407598
1740933579907039700,2.449039794921875,-0.044621232014894485,-0.04565810078196227,-0.007489885397930629
1740933579917005800,2.459005859375,-0.0524023874104023,-0.040144397128093985,-0.0066396469353872814
1740933579926972700,2.46897265625,-0.06137947459220886,-0.034052235999144614,-0.014715610284206922
1740933579936939800,2.478939697265625,-0.05120528658032417,-0.02307465918250382,-0.0024064834697055627
1740933579946905600,2.488905517578125,-0.04507306743562221,-0.02218037722390145,0.0016913563286478164
1740933579956872700,2.498872802734375,-0.05330372016429901,-0.026651677419058977,0.002174432846077252
1740933579966839800,2.50883984375,-0.04641863682568073,-0.01595099958134815,-0.005349403912160778
1740933579976805600,2.5188056640625,-0.04492576791942119,-0.023752302715741098,-0.0035413441349752247
1740933579986772700,2.528772705078125,-0.05121346988677978,-0.04305328857842833,0.0009224132161878514
1740933579996738600,2.538738525390625,-0.05899404076039791,-0.03515283591849729,-0.009742174961412092
1740933580006705700,2.54870556640625,-0.0640881490290165,-0.03982364074112847,-0.014811527814686996
1740933580016672500,2.558672607421875,-0.06453530827462672,-0.030609091541636733,-0.00009272891790606081
1740933580026638800,2.568638916015625,-0.07231704819202422,-0.04255407035201788,-0.002581601432949537
1740933580036606000,2.57860595703125,-0.0504676199555397,-0.03321763007221743,-0.0044343234774132725
1740933580046571800,2.58857177734375,-0.06078735391795635,-0.025220091979671268,-0.01669077482318389
1740933580056539000,2.598538818359375,-0.052558454754948615,-0.04284750034064054,0.007908049161208327
1740933580066505700,2.608505615234375,-0.06273673442006111,-0.026852826014347374,0.0031023465045785996
1740933580076471800,2.618471923828125,-0.058545712471008295,-0.03199674650775269,-0.0022149098452937323
1740933580086438700,2.628438720703125,-0.052262102156877516,-0.030892182799335567,0.015278694376931525
1740933580096405800,2.63840576171875,-0.04852116206288337,-0.029232816486060617,0.010540458332787966
1740933580106371600,2.64837158203125,-0.055554129439592356,-0.043878030698467047,0.0034299070916662456
1740933580116338700,2.658338623046875,-0.06363631360828877,-0.03513045968990773,0.01049584858114831
1740933580126304500,2.668304443359375,-0.06947276467680931,-0.03646251201126724,-0.0007390982467564754
1740933580136271600,2.678271728515625,-0.05899637884795665,-0.03952010948359966,-0.020904162726027423
1740933580146238700,2.68823876953125,-0.045379356905817986,-0.037576884727645664,-0.010741900330665521
1740933580156204800,2.698204833984375,-0.05315700516998768,-0.030547241819184272,-0.010809044999454636
1740933580166172000,2.708171875,-0.06408055024445057,-0.0299415492773056,-0.0015691695624613202
1740933580176137700,2.7181376953125,-0.05375672462880611,-0.02868681824216619,-0.013123967453389195
1740933580186104800,2.728104736328125,-0.06423252593576907,-0.04359811777854338,-0.0014589689199463463
1740933580196071700,2.73807177734375,-0.04492810600697994,-0.030493429272715,-0.013506297284882748
1740933580206037800,2.748037841796875,-0.04402852681875229,-0.042685021521616726,-0.009507791958446614
1740933580216004600,2.758004638671875,-0.05075929637849331,-0.04072301899995655,-0.01630084963205736
1740933580225970700,2.767970703125,-0.05135726227164268,-0.03476591896014288,-0.013455902821494965
1740933580235937800,2.777937744140625,-0.06811842745840549,-0.03376943700239062,-0.005545280393998837
1740933580245904600,2.787904541015625,-0.041480595901608464,-0.027595187080558387,-0.010134731642686528
1740933580255870700,2.79787060546875,-0.0432785852342844,-0.0454372063065879,-0.0076881901572283815
1740933580265837600,2.807837646484375,-0.054203883874416346,-0.024409816776402294,0.002227791018108837
1740933580275804700,2.8178046875,-0.051513329616189,-0.019178638124652207,-0.0009336686874972656
1740933580285770800,2.827770751953125,-0.057199558559060094,-0.034594800176937134,0.010693964969133957
1740933580295737900,2.83773779296875,-0.039243630629777905,-0.026932302725035696,0.014879245588922639
1740933580305703700,2.84770361328125,-0.05540741444528102,-0.034293881001602855,0.01541590289902524
1740933580315670800,2.8576708984375,-0.059898296123743054,-0.029571766116842625,-0.013238085077551658
1740933580325638000,2.867637939453125,-0.062440966343879696,-0.02828689567176625,0.006324152387073263
1740933580335603700,2.877603759765625,-0.05929857666492462,-0.023918014671467244,-0.023440652083838356
1740933580345570800,2.88757080078125,-0.04822597850859165,-0.01672234928002581,-0.021564556013653053
1740933580355536600,2.89753662109375,-0.04628419679105281,-0.032260895602963864,-0.021707674828369636
1740933580365503700,2.907503662109375,-0.06244739608466625,-0.037859227066673336,-0.01547396921221516
1740933580375470600,2.917470703125,-0.06214812087714672,-0.034554723894875496,-0.0037672127546335104
1740933580385436700,2.927436767578125,-0.04478898979723453,-0.028316523625049737,-0.0005947087819164153
1740933580395403500,2.937403564453125,-0.05092471607327461,-0.02650021318439394,0.008217016928968951
1740933580405369900,2.947369873046875,-0.040595629760622975,-0.03671606664722785,-0.00772297834281926
1740933580415336700,2.957336669921875,-0.05106850845813751,-0.029605284793954342,-0.0002324444909172598
1740933580425303800,2.9673037109375,-0.07485971841216087,-0.032194753297884016,0.005210300260502845
1740933580435270000,2.977269775390625,-0.06333762292265892,-0.02771380849154666,-0.0057339211341633925
1740933580445236700,2.98723681640625,-0.0518184500426054,-0.03909996610907838,0.008555806729546747
1740933580455203800,2.997203857421875,-0.04269289430081844,-0.022989994840044527,-0.00600590419266955
1740933580465169700,3.007169677734375,-0.05302139609158039,-0.015329360551666468,-0.018134865834406808
1740933580475136800,3.01713671875,-0.05272562801539898,-0.03448744907863438,-0.004805301939474884
1740933580485102600,3.0271025390625,-0.030130934369564055,-0.025913572402857243,0.008781941352330614
1740933580495069700,3.037069580078125,-0.058415948611497875,-0.016488284795824436,0.003007421063008951
1740933580505036800,3.047036865234375,-0.052282560423016544,-0.02358807033104822,-0.010925682232622056
1740933580515002600,3.057002685546875,-0.05333119269311428,-0.022792426441330463,-0.01213017749293358
1740933580524969700,3.0669697265625,-0.06036649815738201,-0.015038981036655604,0.007095254348934395
1740933580534936600,3.0769365234375,-0.05961889466047287,-0.028777181673049924,-0.0028905794755090027
1740933580544903000,3.08690283203125,-0.05213526090681553,-0.03470315592223778,-0.007938817617163295
1740933580554869800,3.096869873046875,-0.05347790768742561,-0.04160539132505655,0.004864366049796808
1740933580564835800,3.1068359375,-0.0510819524616003,-0.027774087311420587,0.000043433857994386926
1740933580574802700,3.116802734375,-0.0513823967128992,-0.03312160408552736,0.007248755277058807
1740933580584769800,3.126769775390625,-0.04734276593327522,-0.041152770453039555,-0.01468946320444229
1740933580594735600,3.136735595703125,-0.05931611232161522,-0.03506791584771126,-0.005955959537142189
1740933580604703700,3.146703857421875,-0.05243395159244537,-0.021409886041749267,-0.0074340532826667185
1740933580614669600,3.156669677734375,-0.048991702184081075,-0.04327818337548524,-0.012054559540032641
1740933580624636700,3.16663671875,-0.05736965442895889,-0.025412326616141942,-0.006175479472760343
1740933580634603500,3.176603515625,-0.0452478394806385,-0.045193387613352384,-0.02003155602640472
1740933580644569600,3.186569580078125,-0.04180500555038452,-0.029225016772095113,0.011124906015594023
1740933580654536400,3.196536376953125,-0.05168634809553623,-0.023750183823890984,-0.006803730906319106
1740933580664502500,3.20650244140625,-0.04600128819644451,-0.032551275117974725,-0.008361335611861432
1740933580674469400,3.216469482421875,-0.04615151032209396,-0.020088574310112742,-0.028549380249565
1740933580684436500,3.2264365234375,-0.04495557853579521,-0.03531228253021836,-0.008945481329745961
1740933580694402600,3.236402587890625,-0.051692777836322784,-0.026465598528739063,-0.0002577233501797309
1740933580704369700,3.24636962890625,-0.04765373157858848,-0.027462464078981428,-0.01083615220208885
1740933580714336500,3.25633642578125,-0.04900222357809543,-0.04637435929253697,-0.008747873544303002
1740933580724302600,3.266302490234375,-0.05828326214253902,-0.0394818963650614,-0.0003512845267920056
1740933580734269700,3.276269775390625,-0.04960428112447261,-0.028874979491718113,-0.008357009921548888
1740933580744235500,3.286235595703125,-0.050502106747031206,-0.027954101787135005,-0.011640299058670643
1740933580754202600,3.29620263671875,-0.05110299524962902,-0.02261202837312594,0.004712062706559664
1740933580764169500,3.30616943359375,-0.043618776974081994,-0.03305321502443403,-0.012448110593506135
1740933580774135600,3.316135498046875,-0.03599076631367206,-0.03171818529469892,0.005033070826096809
1740933580784102400,3.326102294921875,-0.04751403084695339,-0.03838648407747969,-0.004317004111767164
1740933580794069500,3.336069580078125,-0.06202770936787128,-0.050115609913785004,-0.009803041728108655
1740933580804035600,3.34603564453125,-0.04392389740049839,-0.03563775162491947,-0.016486378249817062
1740933580814002400,3.35600244140625,-0.047965866267681116,-0.03345315586114302,0.0008183454869373235
1740933580823968800,3.36596875,-0.054549920833110804,-0.02388371054306626,-0.009970818918402072
1740933580833935600,3.375935546875,-0.049909401550889014,-0.02232612410383299,-0.008804020753398072
1740933580843902500,3.38590234375,-0.0663707070082426,-0.028413919584918765,-0.024165596224367616
1740933580853868500,3.39586865234375,-0.057846624290943144,-0.039563345837127416,-0.011651865057233953
1740933580863835600,3.405835693359375,-0.06518178948462008,-0.015171101250033825,-0.0035569566918158668
1740933580873801500,3.415801513671875,-0.05246434673070907,-0.03021150705879554,-0.014666850655479355
1740933580883768600,3.4257685546875,-0.054261167019605636,-0.03375429423218593,-0.019285112440120426
1740933580893735700,3.435735595703125,-0.04827917000055313,-0.04166976179815828,-0.020052231204963755
1740933580903701500,3.445701416015625,-0.055614919716119766,-0.022343184836488214,0.0037436771862412567
1740933580913668600,3.455668701171875,-0.06758709706068039,-0.026500925570446997,-0.010585045251541305
1740933580923635500,3.465635498046875,-0.06908581118583679,-0.03835185115551576,-0.00890999103290087
1740933580933601500,3.4756015625,-0.05113222134411335,-0.025199268387351183,-0.015389764952415133
1740933580943568400,3.485568359375,-0.054281040763854975,-0.026863639669306574,-0.0016009106993733438
1740933580953534700,3.49553466796875,-0.051288873210549354,-0.017409436495043337,0.004758331838212325
1740933580963501600,3.50550146484375,-0.058172787505388256,-0.01604233112661168,-0.0009572031142452033
1740933580973468400,3.515468505859375,-0.06790390792489051,-0.01986873928066343,-0.0006555709820357151
1740933580983434500,3.5254345703125,-0.04396189132332801,-0.03540710294051096,-0.012147737124154808
1740933580993401600,3.535401611328125,-0.05848083054125309,-0.03851833029622212,-0.0067492179610620946
1740933581003367700,3.54536767578125,-0.05264905564785003,-0.029057021527737377,-0.011035661396139766
1740933581013334500,3.55533447265625,-0.043970659151673315,-0.014829320341348647,-0.017654894589516332
1740933581023301600,3.565301513671875,-0.0483107341825962,-0.030209790025744584,-0.014184165722050238
1740933581033267500,3.575267333984375,-0.055792029848694795,-0.02482922949856147,-0.030579518387280402
1740933581043234600,3.585234619140625,-0.05429448476731777,-0.024733532305434344,-0.02344485333492048
1740933581053201400,3.595201416015625,-0.038135961648821826,-0.03376483389250934,-0.017962332553893793
1740933581063167500,3.60516748046875,-0.04217851503789424,-0.028125330168195066,0.00010027861176640726
1740933581073134600,3.615134521484375,-0.04262625880539417,-0.01649263217737898,-0.013751853560766903
1740933581083100700,3.6251005859375,-0.058787120011448854,-0.015900986427161843,-0.004703704157701577
1740933581093067500,3.635067626953125,-0.06387538306117058,-0.01813152195820585,-0.0024037292527937094
1740933581103034600,3.64503466796875,-0.047263270956277845,-0.03365024933582172,-0.010455674117675517
1740933581113000700,3.655000732421875,-0.05818623150885105,-0.03053237304361537,0.010512470922386273
1740933581122967600,3.664967529296875,-0.06686579704880714,-0.02750392860053107,0.01855387327283388
1740933581132934700,3.6749345703125,-0.061330959275364874,-0.024273385714087634,0.009280315332769531
1740933581142900500,3.684900390625,-0.03709375911951065,-0.030676329825259745,-0.015401715685112867
1740933581152867600,3.69486767578125,-0.04711947857141494,-0.03682705274103209,-0.03390502324791159
1740933581162833400,3.70483349609375,-0.05325345128178596,-0.03791630928246304,-0.013933650143258272
1740933581172800500,3.714800537109375,-0.0569943913757801,-0.02369697406562045,-0.019438923895498738
1740933581182767600,3.724767578125,-0.06253156723678112,-0.029512491943966594,-0.02307792428524699
1740933581192733400,3.7347333984375,-0.054451136633753776,-0.024129867323860524,-0.007511721628758823
1740933581202700500,3.744700439453125,-0.059089902350306506,-0.028909776810463517,-0.012142522092920261
1740933581212666600,3.75466650390625,-0.05010872351527214,-0.023510475050192325,-0.016570574518106878
1740933581222633700,3.7646337890625,-0.07150865441858768,-0.027470939646381882,-0.004700411655494827
1740933581232600600,3.7746005859375,-0.0697130031734705,-0.018781473766919226,-0.005127999121777247
1740933581242566700,3.784566650390625,-0.05759177274703979,-0.03183295251447707,0.0005156053889193571
1740933581252533500,3.794533447265625,-0.06432604943811893,-0.03106078083189204,-0.01592220274512656
1740933581262500600,3.80450048828125,-0.056095396709442136,-0.021053272890113293,0.0036199817370914386
1740933581272466700,3.814466796875,-0.06702127987146377,-0.024689199973363427,0.0026371989403065526
1740933581282433500,3.82443359375,-0.058491351935267444,-0.03563672871161252,-0.00913111669124919
1740933581292399600,3.834399658203125,-0.06582242547571658,-0.023140180433075874,-0.012063616204389836
1740933581302366500,3.844366455078125,-0.05699497589766979,-0.029359018415305763,-0.0154385462723847
1740933581312333600,3.85433349609375,-0.0487684148222208,-0.023509324272722003,-0.008650040905483183
1740933581322299400,3.86429931640625,-0.043678398206830026,-0.033501543313823635,-0.018604449257667875
1740933581332266500,3.8742666015625,-0.05026420633792877,-0.0398653427246958,-0.009942651128198485
1740933581342233600,3.884233642578125,-0.07151274607181549,-0.028775756900943816,-0.012333288574800826
1740933581352199700,3.89419970703125,-0.056548985695838924,-0.03401184918982908,-0.00743666422321694
1740933581362166500,3.90416650390625,-0.05505027157068252,-0.022609105763677508,-0.02081811471065739
1740933581372132600,3.914132568359375,-0.068514733299613,-0.029474680684227494,-0.005387409251433564
1740933581382099700,3.924099609375,-0.07405132463872433,-0.032014209099207075,0.01392293466971023
1740933581392066600,3.934066650390625,-0.06686988870203495,-0.028068759409058838,0.004025970434563351
1740933581402032600,3.94403271484375,-0.04352817608118057,-0.024247484087850896,0.0009694552410423056
1740933581411999500,3.95399951171875,-0.06821662713587284,-0.027029844815377145,-0.006151728704414563
1740933581421966600,3.963966552734375,-0.056395256438851356,-0.03419895099345594,-0.010032394646218745
1740933581431932400,3.973932373046875,-0.05654430952072143,-0.04259790949374437,-0.008312700993186444
1740933581441899500,3.9838994140625,-0.04651742102503776,-0.01885315076364204,-0.007251341672256239
1740933581451865600,3.993865478515625,-0.04935819740891456,-0.04170711640017107,-0.02099807667073328
1740933581461832400,4.00383251953125,-0.04097673803269863,-0.04177218099301681,-0.025664488446037283
1740933581471799600,4.013799560546875,-0.04486614668667316,-0.019992530057113617,-0.02375637610265985
1740933581481765600,4.023765625,-0.05054886849820613,-0.0343765177837573,-0.004921849553563515
1740933581491732500,4.033732421875,-0.0499491490393877,-0.024095581461768597,-0.012678326594718963
1740933581501698600,4.043698486328125,-0.04994739547371864,-0.01174715468334034,-0.012167574335786047
1740933581511665700,4.053665771484375,-0.047101942914724346,-0.013499770504329352,-0.0019212235575221711
1740933581521632800,4.0636328125,-0.06610591859221458,-0.025467545668408274,0.00951228261636279
1740933581531598600,4.0735986328125,-0.06655249331593513,-0.011804437828529626,0.0021984113724640335
1740933581541565700,4.083565673828125,-0.06819850695729256,-0.029313973697181788,-0.003730667007618467
1740933581551532500,4.093532470703125,-0.06131693075001239,-0.030887908483017232,0.008574397836407297
1740933581561498600,4.10349853515625,-0.0659568655103445,-0.02336544055631384,0.010540934398467651
1740933581571465500,4.113465576171875,-0.039919337934255596,-0.03520610047569498,0.0025093296395381913
1740933581581431600,4.123431640625,-0.03663140230476856,-0.023221739502996205,-0.003320675705175381
1740933581591398400,4.1333984375,-0.04740823238492012,-0.026085714099369942,-0.017476756977057084
1740933581601365000,4.143364990234375,-0.05459025284349918,-0.027450426581315693,-0.014885617105849087
1740933581611331300,4.153331298828125,-0.04770867663621902,-0.022285993022844196,-0.033759335733484476
1740933581621298200,4.163298095703125,-0.05773322704434394,-0.02412307225689292,-0.029635830629267727
1740933581631264300,4.17326416015625,-0.052501171609759326,-0.029148133877292273,-0.01691475287985522
1740933581641231000,4.183231201171875,-0.057440381577610965,-0.026383655866328626,-0.010111234319378853
1740933581651198200,4.1931982421875,-0.057740241307020185,-0.023520649384334683,0.012301786041550803
1740933581661164300,4.203164306640625,-0.05100596461594104,-0.019359036192856727,0.006509558848891174
1740933581671131100,4.213131103515625,-0.05564531485438347,-0.020665040757507084,0.018127144893899095
1740933581681098200,4.22309814453125,-0.05011106160283088,-0.01877922701090574,0.01365920113303
1740933581691064000,4.23306396484375,-0.049662733313441274,-0.041481874543242155,0.005368451105925487
1740933581701031200,4.24303125,-0.04786883563399315,-0.034530758497398346,-0.010262740794883575
1740933581710997000,4.2529970703125,-0.048768999344110484,-0.04803911416698247,-0.028581942228740078
1740933581720964000,4.262964111328125,-0.05924421612918376,-0.030210886004287747,-0.04279804430888034
1740933581730931200,4.27293115234375,-0.07046762093305588,-0.02464331500502303,-0.02091873467407422
1740933581740897300,4.282897216796875,-0.0528115527331829,-0.016947317142318934,-0.021540234423149375
1740933581750864400,4.292864501953125,-0.05745031844973564,-0.03595005071079358,-0.0038450626221718264
1740933581760830200,4.302830322265625,-0.07076864970624447,-0.03443449504869058,-0.02794053676937474
1740933581770797300,4.31279736328125,-0.053263388153910636,-0.026410050682909785,-0.009990457483922363
1740933581780764200,4.32276416015625,-0.05056932676434517,-0.021795414760615674,0.013510054436326026
1740933581790730200,4.332730224609375,-0.06508183624148368,-0.01709419653341174,0.010468850976368411
1740933581800697000,4.342697021484375,-0.06074526834189892,-0.017425456048082558,0.007927398890716721
1740933581810664200,4.352664306640625,-0.06404255632162094,-0.021691059336997567,-0.014237946302478667
1740933581820630000,4.362630126953125,-0.04489186564981937,-0.02859873809991404,-0.007009947260725312
1740933581830597000,4.37259716796875,-0.05596271024048328,-0.0247922950216569,0.00998706565866014
1740933581840563200,4.382563232421875,-0.05207505515217781,-0.014043412394355982,-0.011982190706854452
1740933581850530000,4.392530029296875,-0.06374561920166015,-0.03503594980686903,0.0005453229612816358
1740933581860497200,4.4024970703125,-0.038757308417558665,-0.029458460201788692,-0.014683472996717318
1740933581870463200,4.412463134765625,-0.06060556761026382,-0.018925138287618756,-0.011680398173618595
1740933581880430300,4.422430419921875,-0.07541910586059093,-0.02449000587314367,0.0068903314775379835
1740933581890396200,4.432396240234375,-0.06045709905028343,-0.028455585035867988,-0.00223505130513513
1740933581900363300,4.44236328125,-0.0585106411576271,-0.031045144871342925,-0.00011523358148115221
1740933581910330400,4.452330322265625,-0.05686579656004905,-0.03862831174302846,-0.00035566901178681287
1740933581920296200,4.462296142578125,-0.061356678238511084,-0.0238859755653888,-0.017010603053320663
1740933581930263300,4.47226318359375,-0.058659694239497184,-0.030935455685481426,-0.005321814935625298
1740933581940230100,4.482230224609375,-0.06987900739014148,-0.0319678492068313,-0.009190228750632377
1740933581950196200,4.4921962890625,-0.046239188605546946,-0.03140170322405174,-0.035293367767194286
1740933581960163000,4.5021630859375,-0.06225041220784187,-0.016890691584255546,-0.004029105389854521
1740933581970129200,4.512129150390625,-0.05252104535400867,-0.028237978496123105,0.003870090319684823
1740933581980096000,4.522095947265625,-0.044891281127929686,-0.01886474986989051,0.0005896604307519737
1740933581990063000,4.53206298828125,-0.061951137000322336,-0.023458361270464956,-0.012694637267058714
1740933582000029200,4.542029296875,-0.0665887336730957,-0.039218733650539066,-0.007320254748090519
1740933582009996300,4.551996337890625,-0.06344459042847156,-0.04154639114681631,0.0002690182082180399
1740933582019962000,4.561962158203125,-0.04533668680787086,-0.02276657961402088,-0.021752356503601186
1740933582029929200,4.57192919921875,-0.042943069669604296,-0.0317217472249642,0.006543845281805261
1740933582039896300,4.581896240234375,-0.05357143118977546,-0.040982364055886865,-0.018340827602130592
1740933582049862100,4.591862060546875,-0.058659694239497184,-0.03883910494949668,-0.00865948801219638
1740933582059829200,4.601829345703125,-0.05656418326497078,-0.02390548398345709,-0.00997530443891883
1740933582069795000,4.611795166015625,-0.06599544395506382,-0.022975747118983418,-0.009797559552104212
1740933582079762200,4.62176220703125,-0.044749242308735844,-0.02032413663165644,0.010855567005323245
1740933582089729000,4.63172900390625,-0.0395095880895853,-0.01473766000252217,-0.003343337915666052
1740933582099695000,4.641695068359375,-0.058064650955796236,-0.01877164649264887,-0.009098965133205638
1740933582109662200,4.651662109375,-0.05596913998126983,-0.02644159659864381,-0.020626768273464404
1740933582119629000,4.661629150390625,-0.06629647272825241,-0.02019400744596496,0.0009067447187757351
1740933582129595400,4.671595458984375,-0.05208382298052311,-0.03352534431451931,-0.011054334130568895
1740933582139562200,4.681562255859375,-0.05133680400550365,-0.0337790633472614,-0.025794811711262446
1740933582149528300,4.6915283203125,-0.06196458100378513,-0.02719027780778706,-0.005700619940293836
1740933582159495200,4.7014951171875,-0.056278352060914034,-0.012669639823120086,0.0055962873495620435
1740933582169462300,4.711462158203125,-0.06136953772008419,-0.026731574254855513,-0.014546719990705604
1740933582179428000,4.721427978515625,-0.05778057331740856,-0.025153310353774577,0.00953260274353961
1740933582189395200,4.731395263671875,-0.05373801992833614,-0.01970123722665012,-0.0032868105390138225
1740933582199361000,4.741361083984375,-0.048799394482374185,-0.013004863126855342,-0.00708766070176789
1740933582209328000,4.751328125,-0.0450607924759388,-0.030412454724684356,-0.025512014997797084
1740933582219295200,4.761295166015625,-0.06585983487665653,-0.02608536703949794,-0.003179080414798227
1740933582229261000,4.771260986328125,-0.052390112450718875,-0.013161040069255977,-0.013024952641880371
1740933582239228200,4.781228271484375,-0.055828854727745056,-0.020626827638968823,-0.008691738893295406
1740933582249194200,4.7911943359375,-0.06136603058874607,-0.012669767687283456,-0.007585362824526964
1740933582259161300,4.801161376953125,-0.051792731079459184,-0.03556538050845265,-0.025183114120282696
1740933582269128200,4.811128173828125,-0.04491115487217903,-0.03354739174954593,-0.021943709790660067
1740933582279094300,4.82109423828125,-0.06077332539260387,-0.03739478789269924,-0.010854626290407031
1740933582289061000,4.83106103515625,-0.06691606593132018,-0.028541564552579075,-0.004606723756363499
1740933582299028200,4.8410283203125,-0.0708060591071844,-0.023468206811044365,-0.017443174367863683
1740933582308994300,4.850994384765625,-0.06212649356722831,-0.03054130526874214,-0.013762490260857156
1740933582318961200,4.860961181640625,-0.05718786812126636,-0.024869287514314053,-0.0016526454531878697
1740933582328927200,4.87092724609375,-0.06766366942822932,-0.02602318852348253,-0.011919006402196827
1740933582338894000,4.88089404296875,-0.06167874979972839,-0.02659755434533581,-0.024656169920018872
1740933582348861200,4.890861083984375,-0.05419511604607105,-0.03506316660735756,-0.0052539498892729165
1740933582358827000,4.900826904296875,-0.047159226059913635,-0.03233896580785513,-0.01651484172589844
1740933582368794000,4.910794189453125,-0.05329495233595371,-0.020030067322216925,-0.015681716511648847
1740933582378760200,4.92076025390625,-0.03907879545688629,-0.016171784458868205,-0.007846468866814393
1740933582388727300,4.930727294921875,-0.06002396833002567,-0.036688886379357424,-0.018800552926724775
1740933582398694400,4.9406943359375,-0.0773813458442688,-0.027142858469486233,-0.0061441521819127955
1740933582408660200,4.95066015625,-0.0577788197517395,-0.02055915096392855,-0.011304927341174333
1740933582418627300,4.96062744140625,-0.054039633223414416,-0.013899967069365084,-0.01949949954289477
1740933582428593200,4.97059326171875,-0.04730944818556308,-0.03125137150054797,0.0023266117500839755
1740933582438560300,4.980560302734375,-0.059735214516520495,-0.02412307225689292,-0.00835370314878819
1740933582448527000,4.990527099609375,-0.06183131001293659,-0.01927899322658777,0.0025598160052933963
1740933582458493200,5.0004931640625,-0.06631985360383987,-0.021705288791749624,-0.0011810327571554807
1740933582468460000,5.0104599609375,-0.06287877323925495,-0.025558237892854958,-0.008796671418115147
1740933582478427100,5.02042724609375,-0.05958908404409885,-0.016484832463413476,-0.01998096291690599
1740933582488393000,5.03039306640625,-0.06048690966665744,-0.011697890447825193,-0.0075527791541098845
1740933582498360000,5.040360107421875,-0.0534521887242794,-0.028387597833573818,-0.004520520477366517
1740933582508326400,5.050326416015625,-0.05135726227164268,-0.033626028210017825,-0.007789967177159269
1740933582518293200,5.060293212890625,-0.051509237962961196,-0.035634755950234825,-0.003642436168316635
1740933582528260400,5.07026025390625,-0.06078560035228729,-0.02908593709496781,-0.0012348316038929624
1740933582538226200,5.08022607421875,-0.05165653747916221,-0.03454741737125441,-0.020648820275068282
1740933582548193300,5.090193359375,-0.05883621985018253,-0.0395979970254004,-0.006755240705650066
1740933582558159000,5.1001591796875,-0.07184884615838527,-0.009773005066160112,0.004353719963785261
1740933582568126200,5.110126220703125,-0.05583469994664192,-0.016491353535745292,-0.0048915811378188664
1740933582578093300,5.12009326171875,-0.04027355819940567,-0.01793048296077177,-0.0022120186310639837
1740933582588059100,5.13005908203125,-0.053444005417823785,-0.027242957843095064,-0.01069788651735871
1740933582598026200,5.140026123046875,-0.060628948485851285,-0.018013393737562,-0.013409410498378564
1740933582607992300,5.149992431640625,-0.04566343454420566,-0.01974149617180228,-0.009432340114793623
1740933582617959200,5.159959228515625,-0.05105097280144691,-0.010895579355303197,-0.011239738309098175
1740933582627926300,5.16992626953125,-0.05359539658725261,-0.024640027069393545,-0.014290617204632143
1740933582637892400,5.179892333984375,-0.05643851105868816,-0.024033603875152767,-0.021297507141879758
1740933582647859500,5.189859375,-0.05613923585116863,-0.020585454448964445,-0.026275539866334293
1740933582657825300,5.1998251953125,-0.059280456486344335,-0.022279307553730903,-0.020504155673948116
1740933582667792400,5.20979248046875,-0.07079904484450816,-0.02544294095011428,0.004244465173585922
1740933582677759500,5.219759521484375,-0.0733422995865345,-0.038774880606867373,-0.013607945869828109
1740933582687725300,5.229725341796875,-0.050146717438101764,-0.03810887271249667,-0.018827905582886887
1740933582697692400,5.2396923828125,-0.06855214270055293,-0.025677699554059654,-0.013030775027890922
1740933582707659300,5.2496591796875,-0.058680737027525895,-0.032824813096039,-0.0017112295020750023
1740933582717625300,5.259625244140625,-0.0655646513223648,-0.0296478635603562,-0.013168236995022743
1740933582727592200,5.26959228515625,-0.0564367574930191,-0.03024794834535569,-0.012408282048261025
1740933582737558300,5.279558349609375,-0.04416705850660801,-0.034550924502592534,0.011633460609219036
1740933582747525000,5.289525146484375,-0.04566285002231597,-0.03038059828169644,-0.006180728753324365
1740933582757492200,5.2994921875,-0.04611234735548496,-0.01975163397332653,-0.009017721727938624
1740933582767458300,5.309458251953125,-0.03563654604852199,-0.025481172334961593,-0.02813426239332184
1740933582777425400,5.31942529296875,-0.05793430257439613,-0.020299294451344756,-0.020981997752189636
1740933582787391200,5.32939111328125,-0.04506605317294597,-0.033602519470266996,-0.020875402422423937
1740933582797358300,5.3393583984375,-0.06272562850415707,-0.026165483071003106,-0.011539127681049284
1740933582807325400,5.349325439453125,-0.06332593248486519,-0.016505875251442193,-0.0027129476114816494
1740933582817291300,5.359291259765625,-0.05494564215242862,-0.0214779645755887,-0.00896723536218342
1740933582827258400,5.36925830078125,-0.05958323882520199,-0.03303697627568617,-0.01853782860361971
1740933582837224200,5.37922412109375,-0.056144496548175805,-0.02080351764643565,0.004895629408562672
1740933582847191300,5.38919140625,-0.05659282483756542,-0.022318726248666643,0.0019482982232933864
1740933582857158400,5.399158447265625,-0.07379939570426941,-0.0259841534210369,-0.0052884846298256885
1740933582867124200,5.409124267578125,-0.05988543664216995,-0.013015950776450335,-0.009291280826422735
1740933582877091300,5.41909130859375,-0.05255377857983112,-0.02482227003481239,0.000011865680196206084
1740933582887057400,5.429057373046875,-0.06707154875397682,-0.025741741233598438,-0.0036300076574727427
1740933582897024500,5.4390244140625,-0.04986322432160377,-0.017360373188927768,-0.009126959393473225
1740933582906991400,5.448991455078125,-0.05629997937083244,-0.018597111909650264,0.008697666310583009
1740933582916957400,5.45895751953125,-0.058847910287976264,-0.02979545533750206,-0.006370987774306559
1740933582926924300,5.46892431640625,-0.04552957903146743,-0.024891115753632037,-0.0017527984840795398
1740933582936890400,5.478890380859375,-0.05002104523181915,-0.02612748914817348,-0.011559961548168211
1740933582946857200,5.488857177734375,-0.045532501640915865,-0.023561986041720957,-0.00583697108750639
1740933582956824300,5.49882421875,-0.04852350015044212,-0.023032116948720066,-0.007131862886386807
1740933582966790100,5.5087900390625,-0.06244388895332813,-0.014025054753758013,-0.019182405550894326
1740933582976757200,5.51875732421875,-0.06498831273913383,-0.01489502425501123,-0.010042249319952679
1740933582986724400,5.528724365234375,-0.05945230592191219,-0.028180403089988974,-0.005237736256700009
1740933582996690200,5.538690185546875,-0.05646130741238594,-0.019596571275778112,-0.006828141545079415
1740933583006657300,5.5486572265625,-0.0435877973139286,-0.029062355289980767,-0.007065328426484484
1740933583016623400,5.558623291015625,-0.0640875645071268,-0.0338830351783894,-0.015218219194235279
1740933583026590500,5.568590576171875,-0.053013212785124775,-0.02466052186815068,-0.019473410686990246
1740933583036557300,5.578557373046875,-0.04852642275989055,-0.03411319067245349,-0.0023643938978930236
1740933583046523400,5.5885234375,-0.045534255206584925,-0.02767060867063701,-0.01692236422250862
1740933583056490500,5.598490478515625,-0.050772740381956095,-0.015791242442373184,-0.012432264570402913
1740933583066456300,5.608456298828125,-0.05541033705472946,-0.023635124343167987,-0.0017685212095966561
1740933583076423400,5.61842333984375,-0.05645780028104782,-0.0198823842135258,-0.008712601301522226
1740933583086390300,5.628390380859375,-0.048527591803669924,-0.021352201037760823,-0.002944374897313537
1740933583096356400,5.6383564453125,-0.06708557727932929,-0.01406600781865418,-0.012156034595042001
1740933583106323200,5.6483232421875,-0.06334814431667328,-0.019727431113831698,-0.022301665516011416
1740933583116289300,5.658289306640625,-0.067986910033226,-0.03500820328341797,-0.012332326168642611
1740933583126256000,5.668256103515625,-0.04808627777695656,-0.033891437680553645,-0.01098125291133765
1740933583136223200,5.67822314453125,-0.059311436146497726,-0.020640673501230774,0.0030558924265467794
1740933583146189300,5.688189208984375,-0.04644318674504757,-0.03182115247882902,-0.0209462368856417
1740933583156156400,5.698156494140625,-0.05722001682519912,-0.03036340968487784,-0.0024373038704768985
1740933583166122200,5.708122314453125,-0.06126257021427154,-0.02098431757343933,0.016469488763809204
1740933583176089300,5.71808935546875,-0.05273498036563396,-0.010735566488001495,-0.008331985648968839
1740933583186056400,5.728056396484375,-0.06770341691672802,-0.024890549498051404,-0.010161335380177479
1740933583196022300,5.738022216796875,-0.06785480808615683,-0.015693773417267947,0.0013300059239234542
1740933583205989400,5.7479892578125,-0.05977730009257793,-0.0258835791233927,-0.013393700330948922
1740933583215955200,5.757955078125,-0.034489714100956914,-0.01880467197941616,-0.015205462460650595
1740933583225922300,5.76792236328125,-0.05424129327535629,-0.01689430831344798,-0.01199003608659259
1740933583235889200,5.77788916015625,-0.06501870787739754,-0.011206216207053511,-0.01329737523344811
1740933583245855200,5.787855224609375,-0.0493085130482912,-0.021454437569528816,-0.03292867532931268
1740933583255822300,5.797822265625,-0.05409925445616245,-0.02075472833495587,-0.004978662341294693
1740933583265788400,5.807788330078125,-0.05784136359393596,-0.01875038450891152,-0.013261614366900175
1740933583275755500,5.817755615234375,-0.06472293980121613,-0.03678065631603822,-0.010627231292298528
1740933583285722400,5.827722412109375,-0.06158347273170948,-0.011673559724166989,0.003722582453396171
1740933583295688400,5.8376884765625,-0.05036065244972705,-0.02185638770023361,-0.021194770569901447
1740933583305655300,5.8476552734375,-0.06038987903296947,-0.024252744784858078,-0.01294060910147382
1740933583315622400,5.857622314453125,-0.06263444308936596,-0.016320709676574913,0.0030991561795381127
1740933583325588200,5.867588134765625,-0.050210430324077605,-0.017378840427380055,-0.007681230122657143
1740933583335555300,5.877555419921875,-0.058439329487085336,-0.012951141911931335,-0.02533659906538669
1740933583345521200,5.887521240234375,-0.04317921651303768,-0.0033863362363539635,-0.022529674718761817
1740933583355488300,5.89748828125,-0.0585977349191904,-0.027231103008519858,-0.0016114143979008076
1740933583365455400,5.907455322265625,-0.03525543777644634,-0.01806159852715209,0.0017262055922095895
1740933583375421200,5.917421142578125,-0.06548398730158805,-0.023065617359522728,-0.0072534748346603
1740933583385388300,5.92738818359375,-0.058597150397300714,-0.0276988849170506,0.014149966624926309
1740933583395354400,5.937354248046875,-0.06981938615739346,-0.02338549696365371,-0.011659857709088828
1740933583405321500,5.947321533203125,-0.06128828917741775,-0.02332788502490148,-0.013735172995668836
1740933583415287300,5.957287353515625,-0.055903089007735246,-0.02384608194641769,0.0030743516734888544
1740933583425254400,5.96725439453125,-0.05635317086279392,-0.024399605909641832,-0.0010926814743783325
1740933583435221200,5.97722119140625,-0.04542962578833103,-0.021245562325511128,-0.012488305606576613
1740933583445187300,5.987187255859375,-0.054714171484112735,-0.023355065292771905,-0.013253020068490877
1740933583455154400,5.997154541015625,-0.060251347345113754,-0.018381204136647282,-0.00499361959429807
1740933583465121300,6.007121337890625,-0.06234568927586078,-0.02708875366207212,-0.014640823448367882
1740933583475087400,6.01708740234375,-0.06383972722589969,-0.030480898584704843,-0.010544346773327561
1740933583485054200,6.02705419921875,-0.07042378179132938,-0.01956635880060494,-0.006691832067884388
1740933583495020300,6.037020263671875,-0.06713058546483516,-0.029773554032947867,-0.002538196686885203
1740933583504987100,6.046987060546875,-0.057258010748028755,-0.02169991849688813,-0.012328861278144176
1740933583514954200,6.056954345703125,-0.05471183339655399,-0.02465323361083865,-0.02834112149347784
1740933583524920300,6.06692041015625,-0.039897710624337196,-0.03318283275347203,-0.009673231061181287
1740933583534887400,6.076887451171875,-0.03915069164931774,-0.008440879679564386,-0.017970588925585614
1740933583544853200,6.086853271484375,-0.046781040397286415,-0.01611382546024397,-0.03606844835949596
1740933583554820400,6.0968203125,-0.053067573320865626,-0.031741346974577755,-0.03224599942793138
1740933583564787500,6.106787353515625,-0.056660044854879375,-0.020631485547777263,-0.019602843469649085
1740933583574753300,6.116753173828125,-0.05261924503147602,-0.03395924221975729,-0.013926334486482663
1740933583584720400,6.126720458984375,-0.06563713203668593,-0.02740881592929363,-0.006379922282721964
1740933583594686200,6.136686279296875,-0.053366848528385157,-0.024269385392405092,-0.004658118870994076
1740933583604652800,6.14665283203125,-0.04124854071140289,-0.012190167476795613,-0.013908535109955118
1740933583614620000,6.156619873046875,-0.06249941853284836,-0.025545122682955116,-0.0020598500018561023
1740933583624586000,6.1665859375,-0.06010580139458179,-0.026124603071343153,-0.001364735314832069
1740933583634552800,6.176552734375,-0.06115443366467952,-0.02459456222616136,0.002914160709673888
1740933583644519000,6.186518798828125,-0.05831541084647178,-0.012881693404912948,-0.014715555485279764
1740933583654486000,6.196486083984375,-0.060713119637966155,-0.01797315305871889,0.0007603659387154038
1740933583664453000,6.206453125,-0.061011810323596,-0.014394618718512355,-0.007239629543220508
1740933583674419000,6.2164189453125,-0.05667348885834217,-0.007760313536878675,-0.009257665680366334
1740933583684386000,6.226385986328125,-0.05397708938121795,-0.02241347359372303,-0.015637876228278037
1740933583694352000,6.236351806640625,-0.0649023880213499,-0.026520561852678655,0.003503651606244966
1740933583704319000,6.246319091796875,-0.049343584361672396,-0.02531474799318239,-0.017727626465586944
1740933583714285800,6.256285888671875,-0.05502864426076412,-0.016097678043041377,-0.023767724047158843
1740933583724252000,6.266251953125,-0.06206219615936279,-0.026390852792095392,-0.011661094109882832
1740933583734218800,6.27621875,-0.07223404608368873,-0.015486176814883946,-0.020974198038224128
1740933583744185000,6.28618505859375,-0.06370236458182335,-0.013631963782943785,-0.005764348238467937
1740933583754152000,6.29615185546875,-0.0467903927475214,-0.011816256130486726,0.0037980839585768987
1740933583764118800,6.306118896484375,-0.043349896904826164,-0.011455971450731158,-0.0033858630247850666
1740933583774085000,6.316085205078125,-0.0717781190097332,-0.014409761488717048,0.009278154770901891
1740933583784052000,6.326052001953125,-0.06489654280245304,-0.023623616568464786,0.004270301726096659
1740933583794018000,6.33601806640625,-0.05681435863375663,-0.017413765610288828,-0.004957390082758502
1740933583803985000,6.34598486328125,-0.04843582186698913,-0.016180643618758768,-0.011804752922360785
1740933583813952000,6.355951904296875,-0.0566676436394453,-0.013092157817818223,-0.01637565016762819
1740933583823917800,6.365917724609375,-0.052178515526652335,-0.012492127831745891,-0.01827378225639695
1740933583833885000,6.375885009765625,-0.06444938355684281,-0.014410035483352839,-0.022621609052224084
1740933583843852000,6.38585205078125,-0.059362289550900456,-0.017378529900126158,-0.01239998800230678
1740933583853817900,6.39581787109375,-0.04709142152070999,-0.011570099349692463,-0.011922272646584315
1740933583863785000,6.405784912109375,-0.06040858373343944,-0.022805231123976408,-0.018253529486234765
1740933583873751000,6.4157509765625,-0.0653472091794014,-0.021747301302570847,-0.03345050952961901
1740933583883718000,6.4257177734375,-0.050831777092814445,-0.018478143438789993,-0.025980127983179408
1740933583893685000,6.43568505859375,-0.05487082335054874,-0.025395649475976823,-0.014065479237335966
1740933583903651000,6.445651123046875,-0.04738485150933265,-0.012110983027052134,-0.006084656530039501
1740933583913618000,6.455617919921875,-0.05591302587985992,-0.01247590734930709,0.00031384544309985356
1740933583923584000,6.465583984375,-0.05067395618259907,-0.01957742818389088,-0.00222433754405356
1740933583933550800,6.47555078125,-0.0611468348801136,-0.024744272895157335,0.007114560695958789
1740933583943518000,6.48551806640625,-0.06338847632706165,-0.030557397887017577,0.007256132011805311
1740933583953483800,6.49548388671875,-0.05246785386204719,-0.028628749645687637,-0.003442008521413663
1740933583963451000,6.505450927734375,-0.06189385385513305,-0.030781799493730066,-0.027458733185357413
1740933583973417000,6.5154169921875,-0.05934767650365829,-0.01905466468511149,-0.01404617060702294
1740933583983383800,6.5253837890625,-0.04303951578140258,-0.035702049032784997,-0.020308607985673004
1740933583993351000,6.535350830078125,-0.054262920585274696,-0.023567374602891503,-0.020309142275212796
1740933584003317000,6.54531689453125,-0.06743278328180313,-0.0327715120062232,-0.036697170150512826
1740933584013283800,6.555283935546875,-0.0723702396839857,-0.03279423529468477,-0.01890838579892879
1740933584023250000,6.56525,-0.051720834887027736,-0.009113792238757013,-0.015764324752695392
1740933584033217000,6.575217041015625,-0.04723112225234508,-0.024412520190142093,-0.008885163693965296
1740933584043184000,6.58518408203125,-0.04797814122736454,-0.03014299013353884,-0.006807444675278384
1740933584053150000,6.59514990234375,-0.06369067414402961,-0.023988303428702056,-0.022346041230566334
1740933584063117000,6.605116943359375,-0.04199263707697391,-0.01115503400908783,-0.008182630602177231
1740933584073083000,6.615082763671875,-0.04423427852392196,-0.023696718337293712,-0.0032150730351422677
1740933584083050000,6.625050048828125,-0.06368775153458119,-0.02500312476074323,-0.010978478715650272
1740933584093016800,6.635016845703125,-0.06578384703099727,-0.02780523136835545,-0.0035504179239971563
1740933584102983000,6.64498291015625,-0.06952712521255015,-0.020523933520074932,-0.00839891169287148
1740933584112949800,6.65494970703125,-0.04723112225234508,-0.015275493206270039,-0.01549663427681662
1740933584122916000,6.664916015625,-0.062494742357730865,-0.025290417269524187,-0.015236065378179772
1740933584132883000,6.674883056640625,-0.06862871506810188,-0.02339041060078889,-0.020757555046281777
1740933584142850000,6.68485009765625,-0.06623509792983531,-0.016041490876395254,-0.020710985091351903
1740933584152815900,6.69481591796875,-0.055908934226632116,-0.02535513480249792,-0.010676232949621044
1740933584162783000,6.704782958984375,-0.05291735119521618,-0.017971034166868776,-0.013352219826378858
1740933584172749000,6.7147490234375,-0.04782850362360477,-0.009787892108038068,0.0021819442948530195
1740933584182716000,6.7247158203125,-0.06473930641412734,-0.011671623495407402,-0.007548806231890921
1740933584192683000,6.73468310546875,-0.06399053387343884,-0.01409457632601261,-0.00766852761717746
1740933584202648800,6.74464892578125,-0.04319441408216953,-0.02157004503952339,-0.004478757415828294
1740933584212616000,6.754615966796875,-0.05516425333917141,-0.02983162262942642,-0.0030006676660588706
1740933584222581800,6.764581787109375,-0.060848144194483755,-0.033974202326871455,-0.015388526268332496
1740933584232548900,6.774548828125,-0.06399053387343884,-0.010787771599274128,-0.002696505650045583
1740933584242516000,6.784515869140625,-0.049176411101222034,-0.02470041548712179,-0.009975169724889564
1740933584252482000,6.79448193359375,-0.0499228455543518,-0.01924225967908278,-0.01009057626548456
1740933584262449200,6.80444921875,-0.05246610029637813,-0.026310919423680752,-0.011678461944859008
1740933584272415000,6.8144150390625,-0.046480011624097824,-0.02108012436442077,-0.00936113690046186
1740933584282382000,6.824382080078125,-0.05845277349054813,-0.019073278054036198,-0.03105190797226969
1740933584292349000,6.834348876953125,-0.058604749181866644,-0.029896139233000576,-0.022390391828946303
1740933584302315000,6.84431494140625,-0.06653378861546516,-0.022319676096737382,-0.013901612178824142
1740933584312281900,6.85428173828125,-0.05156944371759891,-0.014127875807415693,-0.006020953918862505
1740933584322248000,6.864248046875,-0.05756020856499672,-0.029470552498381583,-0.016135181058815215
1740933584332214800,6.87421484375,-0.06040449208021163,-0.025367190566472707,-0.019867565670306793
1740933584342182000,6.884181884765625,-0.06998363680839538,-0.015081340607348828,-0.0032591507805307626
1740933584352147700,6.894147705078125,-0.06579378390312195,-0.03693224841486662,0.014731027049047406
1740933584362114800,6.90411474609375,-0.05531856711804867,-0.021702585378009825,-0.010254509539366699
1740933584372081200,6.9140810546875,-0.05143032750785351,-0.021904702087678012,-0.002433991389494622
1740933584382048000,6.924048095703125,-0.05008534263968467,-0.03216181914266199,-0.01180164079995593
1740933584392015000,6.93401513671875,-0.06489712732434272,-0.014734299001656471,-0.0018131315320584688
1740933584401981000,6.94398095703125,-0.042755438143014905,-0.013794661797676234,-0.0033042942508880514
1740933584411948000,6.953947998046875,-0.06161269882619381,-0.028636330163944512,0.0008160245240433141
1740933584421913900,6.963913818359375,-0.06639934858083725,-0.03095733872372657,-0.01208692629802972
1740933584431881000,6.973880859375,-0.054580315971374506,-0.018262984584458172,-0.011081056599068688
1740933584441848000,6.98384814453125,-0.06505319466888904,-0.0333099114655517,-0.009849882252741372
1740933584451814000,6.99381396484375,-0.059064183387160296,-0.030177915316447614,0.0020843202915319125
1740933584461781000,7.003781005859375,-0.04873977324962616,-0.02386520677199587,-0.003941303808815428
1740933584471746800,7.013746826171875,-0.051285366079211234,-0.02842016666261479,-0.015574538943282095
1740933584481714000,7.0237138671875,-0.05667290433645248,-0.028681411414686588,0.0018703750051077804
1740933584491680800,7.0336806640625,-0.05757131448090076,-0.028375560335908084,-0.007790992373754852
1740933584501647000,7.043647216796875,-0.05966507188975811,-0.024515816167835144,-0.008341438463903613
1740933584511614000,7.053614013671875,-0.058765492701530454,-0.028636421495489773,0.0015782404973724623
1740933584521580000,7.063580078125,-0.05697159502208233,-0.022877857968769965,-0.017832931737275792
1740933584531547000,7.073546875,-0.05068623114228248,-0.035631285351514816,-0.027577875186153684
1740933584541514000,7.083513916015625,-0.05547755707204342,-0.013656696365401148,-0.01426224962667329
1740933584551479800,7.093479736328125,-0.061764674517512316,-0.025826496907602994,-0.017621906777011462
1740933584561447000,7.103447021484375,-0.059520110461115834,-0.020876436752174047,-0.014832058004417921
1740933584571413000,7.1134130859375,-0.06041968964934349,-0.003295169087871909,-0.0007379132199566811
1740933584581379800,7.1233798828125,-0.056232759353518486,-0.0193439847541973,0.0059335650422435715
1740933584591347000,7.133346923828125,-0.07179682371020317,-0.019706972847692666,-0.006787002392159775
1740933584601312800,7.143312744140625,-0.05249123473763465,-0.024151494633778928,-0.021874800139758736
1740933584611279400,7.153279296875,-0.055931146058440205,-0.020785927190817892,-0.0018294904388705617
1740933584621245400,7.163245361328125,-0.06341477981209755,-0.022961499397922306,-0.011630566540878498
1740933584631212500,7.173212646484375,-0.0673030194222927,-0.015714067286625503,-0.015236613367451354
1740933584641179600,7.1831796875,-0.07059563122689723,-0.021818612973112612,-0.015564153404941316
1740933584651145500,7.1931455078125,-0.06176584356129169,-0.02920623900638893,-0.000994627641972329
1740933584661112600,7.203112548828125,-0.06670096187591552,-0.02738843072839081,-0.011862555515713757
1740933584671078400,7.213078369140625,-0.056527358385920524,-0.02297585671683773,-0.01947980389515869
1740933584681045500,7.22304541015625,-0.039021512311697,-0.02379153874758631,-0.02193442822237266
1740933584691012400,7.233012451171875,-0.06042436582446098,-0.009846399095933885,-0.02233954984098673
1740933584700978400,7.242978515625,-0.06730594203174114,-0.01530669206213206,-0.014953027777763781
1740933584710945300,7.2529453125,-0.06535948413908481,-0.016831399145070463,-0.013115455353370635
1740933584720911600,7.26291162109375,-0.05937281094491481,-0.02526592214908451,-0.005516060007736087
1740933584730878500,7.27287841796875,-0.06146832191944122,-0.032292167524062096,-0.00877962438519171
1740933584740845600,7.282845458984375,-0.06371697762906552,-0.014907591475639491,-0.00024230601451708935
1740933584750811600,7.292811767578125,-0.04531447497606277,-0.02554218180719763,0.001240446210638038
1740933584760778500,7.302778564453125,-0.05443944619596004,-0.010104958700574934,-0.0117217154230515
1740933584770744600,7.31274462890625,-0.061326867622137064,-0.02699316606679931,-0.018850741894135718
1740933584780711400,7.32271142578125,-0.07254968790411949,-0.02010906910886988,-0.004946134040626929
1740933584790678500,7.332678466796875,-0.06402209805548191,-0.022569814932905136,-0.007320819291204679
1740933584800644400,7.342644287109375,-0.053548634836077684,-0.02806554453866556,0.005375375749522936
1740933584810611500,7.352611572265625,-0.05235445661544799,-0.018951204310636967,-0.01706410507253604
1740933584820577300,7.362577392578125,-0.047718613508343694,-0.02378067029369995,-0.01948143872981891
1740933584830544400,7.37254443359375,-0.06702244891524314,-0.03496591677796095,-0.017289047818654216
1740933584840511500,7.382511474609375,-0.057446226796507835,-0.01714543353030458,-0.007841002103008213
1740933584850477600,7.3924775390625,-0.05939502277672291,-0.02268487441362813,-0.005746773195048445
1740933584860444700,7.402444580078125,-0.05640577783286571,0.001544434696715325,-0.013532964954455383
1740933584870410500,7.412410400390625,-0.03979600381553173,-0.013706179796624928,0.001283983958265162
1740933584880377600,7.422377685546875,-0.057305941542983053,-0.017199629669263958,-0.013186802414886187
1740933584890344400,7.432344482421875,-0.05386719926595687,-0.024248342604376374,-0.0034856615751166827
1740933584900310500,7.442310546875,-0.05760580127239227,-0.020480879829637706,-0.00476297205153387
1740933584910277400,7.45227734375,-0.04308978466391563,-0.020665789676178246,-0.010439396553020924
1740933584920243500,7.462243408203125,-0.07047171258628368,-0.02403882803954184,-0.012198209219356066
1740933584930210300,7.472210205078125,-0.0691290658056736,-0.018184914379566906,-0.011330350618442753
1740933584940176400,7.48217626953125,-0.06269581788778304,-0.023503460787516087,-0.025559575899993067
1740933584950143500,7.4921435546875,-0.04803367080688476,-0.03134798200912774,-0.011378098750306525
1740933584960110300,7.5021103515625,-0.05282090508341789,-0.02617063417015597,-0.02229791635607835
1740933584970076700,7.51207666015625,-0.06718377695679664,-0.002458754796348512,-0.011651375291822478
1740933584980043500,7.52204345703125,-0.06015256314575672,-0.01930389020582661,-0.004367100035166368
1740933584990009600,7.532009521484375,-0.05596271024048328,-0.006747428433597088,-0.023464717946015297
1740933584999976400,7.5419765625,-0.058358080944418904,-0.019563965914119033,-0.010843712170748039
1740933585009943600,7.551943603515625,-0.06448971556723117,-0.02223899380965158,-0.011839283096336294
1740933585019909400,7.561909423828125,-0.062244566988945,-0.021529840893298385,0.001281150397073361
1740933585029876500,7.57187646484375,-0.046832478323578834,-0.02403824351765215,0.01985958100996213
1740933585039842300,7.58184228515625,-0.0555132129073143,-0.016792875499278305,0.0006368451611459022
1740933585049809400,7.591809326171875,-0.059548752033710475,-0.03151172120347619,-0.005578093534923391
1740933585059776500,7.601776611328125,-0.05745324105918407,-0.014465473731327802,-0.02118291573532624
1740933585069742300,7.611742431640625,-0.06104688163697719,-0.020809837789367885,-0.013902373655582778
1740933585079709400,7.62170947265625,-0.05476210227906703,-0.03024135420778766,-0.022576224124094005
1740933585089675500,7.631675537109375,-0.059852118894457816,-0.017848905624542385,0.00535139836478047
1740933585099642600,7.641642578125,-0.06135200206339359,-0.027881511474959552,0.002183112196988077
1740933585109609500,7.651609375,-0.055818333333730694,-0.02835798814659938,0.0007249492779286811
1740933585119575600,7.661575439453125,-0.04714227492511272,-0.015365728772990405,-0.018858185415074693
1740933585129542700,7.671542724609375,-0.05881166993081569,-0.018296083136461673,-0.012904043375683249
1740933585139508500,7.681508544921875,-0.04714285944700241,-0.02535358216622844,-0.003009339025459485
1740933585149475600,7.6914755859375,-0.061358431804180144,-0.01518491057967767,-0.0019995135289442257
1740933585159442400,7.7014423828125,-0.03277648044228554,-0.012700126292929053,-0.007571325736842118
1740933585169408500,7.711408447265625,-0.04938625445961952,-0.02496054599434137,-0.0084596814198012
1740933585179375400,7.721375244140625,-0.06061141282916069,-0.02398251300873235,-0.02608840381337795
1740933585189341400,7.731341552734375,-0.07497428470253945,-0.02840719758318737,-0.004419345674812211
1740933585199308300,7.741308349609375,-0.060011108848452566,-0.027022026835102585,-0.007485350786708295
1740933585209275400,7.751275390625,-0.052825581258535384,-0.027015450963843612,-0.020899379236344245
1740933585219241500,7.761241455078125,-0.05297638790607452,-0.013494308877922594,-0.016273105391894933
1740933585229208600,7.77120849609375,-0.04205634996294975,-0.015434939817991107,-0.010524350873136426
1740933585239174400,7.78117431640625,-0.04759586391150951,-0.012465404221601783,-0.013198915261076763
1740933585249141500,7.7911416015625,-0.05642565157711506,-0.016757950316369532,-0.008554138216379214
1740933585259108600,7.801108642578125,-0.04715045823156833,-0.023535974817629902,-0.02029179613147862
1740933585269074400,7.811074462890625,-0.04625789330601692,-0.01569536258615553,0.005182247776375152
1740933585279041500,7.82104150390625,-0.05029810860753059,-0.009095690326485783,-0.009486470038382685
1740933585289007400,7.83100732421875,-0.046557753035426135,-0.0247747593649663,-0.014473506340733728
1740933585298974500,7.840974365234375,-0.05897592058181762,-0.028461156260129062,-0.014047983538196421
1740933585308941300,7.85094140625,-0.05343874472081661,-0.01066235512131825,0.0008965903634089045
1740933585318907400,7.860907470703125,-0.04535831411778927,-0.013058438211306929,-0.004686204462806927
1740933585328874500,7.87087451171875,-0.0586760608524084,-0.016649722435232252,0.00867158601701085
1740933585338840600,7.880840576171875,-0.05254033457636833,-0.023855196834634988,-0.00450132886559586
1740933585348807700,7.8908076171875,-0.07094692888259888,-0.02996076543442905,0.0006831622418598272
1740933585358774500,7.9007744140625,-0.04835281975865364,-0.021662289900239554,0.0003203157122596167
1740933585368740600,7.91074072265625,-0.05688333221673965,-0.019070318911969662,-0.006821228888747282
1740933585378707500,7.92070751953125,-0.05104629662632942,-0.005051821763161569,-0.014983740293147274
1740933585388673500,7.930673583984375,-0.05044716168940067,-0.026480540369544177,-0.018428553834644843
1740933585398640400,7.940640380859375,-0.06272212137281895,-0.011009323661774397,-0.008448895735127734
1740933585408607500,7.950607421875,-0.055987844681739805,-0.022095822479296475,0.0010408976298582275
1740933585418573300,7.9605732421875,-0.05194821390211582,-0.026581717455387115,-0.010138621224870439
1740933585428540400,7.97054052734375,-0.06826105079948902,-0.01898598336307332,-0.008317632896630674
1740933585438506200,7.98050634765625,-0.06706453449130058,-0.014921346006356178,-0.004506292164258775
1740933585448473300,7.990473388671875,-0.0577829114049673,-0.02301911133667454,-0.003329503469847259
1740933585458439700,8.000439697265625,-0.05493862788975239,-0.008116013373062014,-0.001978662537160562
1740933585468406500,8.010406494140625,-0.04894961660802364,-0.014557261934317648,0.01003314242324559
1740933585478373600,8.02037353515625,-0.05194119963943958,-0.02058750027557835,0.0027664918715367094
1740933585488339500,8.03033935546875,-0.061520344367623325,-0.02033515121601522,-0.019862622350419405
1740933585498306600,8.040306640625,-0.06465864239335059,-0.02844952062126249,-0.0036107566801976644
1740933585508272400,8.0502724609375,-0.05702595555782318,-0.020259930555336175,-0.008920630016279756
1740933585518239500,8.060239501953125,-0.04954699797928333,-0.02597059981971979,-0.019263880139135287
1740933585528206600,8.07020654296875,-0.051042789494991296,-0.017605068664997815,-0.016275538235931888
1740933585538172400,8.08017236328125,-0.05343816019892692,-0.023089436626527456,-0.00863983289283351
1740933585548139500,8.090139404296876,-0.06391220794022083,-0.026263445286452768,-0.005297441400305252
1740933585558105300,8.100105224609376,-0.06765548612177372,-0.03439438223401085,-0.00982758936418686
1740933585568072400,8.110072509765626,-0.07468786897659302,-0.012278302417974918,-0.014497255967435193
1740933585578039300,8.120039306640624,-0.05912438914179802,-0.023992760408110915,0.006235494572797324
1740933585588005600,8.130005615234374,-0.0607721563488245,-0.023489468794781712,-0.010397897782141808
1740933585597972500,8.139972412109374,-0.0574783755004406,-0.029844445578381416,-0.0020893826278392223
1740933585607938800,8.149938720703124,-0.04326046505570411,-0.020052863675914703,-0.0029872596243920267
1740933585617905700,8.15990576171875,-0.04625087904334068,-0.01955203801430762,-0.0038554635727108687
1740933585627872800,8.169872802734375,-0.043409518137574196,-0.018729761845991014,-0.001274252582117333
1740933585637838600,8.179838623046875,-0.06959668331742286,-0.012879446648899465,-0.012776522847253363
1740933585647805700,8.1898056640625,-0.054335985821485515,-0.016522899451479316,-0.019658854823070577
1740933585657771500,8.199771484375,-0.04925122990310192,-0.020570457809232175,-0.002323535589475068
1740933585667738600,8.209738525390625,-0.06481763234734535,-0.029546503811422733,-0.017631280818488446
1740933585677705700,8.219705810546875,-0.06676525928378105,-0.022407573575899002,0.0013582456377189372
1740933585687671600,8.229671630859375,-0.07544540934562682,-0.009189414758235216,-0.00922702109281963
1740933585697638700,8.239638671875,-0.06123100603222847,-0.0175101386568509,-0.017577623535646125
1740933585707604700,8.249604736328125,-0.061980947616696355,-0.020739092374406753,-0.02384073676773114
1740933585717571800,8.25957177734375,-0.058088616353273385,-0.016622889227233827,-0.009466306887299287
1740933585727538700,8.26953857421875,-0.05300093782544136,-0.017509024411998687,-0.0054973564489104315
1740933585737504800,8.2795048828125,-0.06183189453482627,-0.02040717527261004,-0.03720474977989215
1740933585747471600,8.2894716796875,-0.07559680051505566,-0.010169566635694354,-0.018636174411559476
1740933585757437700,8.299437744140626,-0.05300386043488979,-0.020839758003596213,-0.011102485262876143
1740933585767404800,8.30940478515625,-0.0527028316617012,-0.010596925202291458,-0.012658023592206882
1740933585777370600,8.31937060546875,-0.05794307040274143,-0.020929262917954473,-0.007610896841294015
1740933585787337700,8.329337646484374,-0.06393383525013924,-0.029852884613163766,0.0010249277383467415
1740933585797304600,8.3393046875,-0.05525777684152126,-0.01686230573998764,-0.0030798641030676662
1740933585807270700,8.349270751953124,-0.050319735917448996,-0.019092695140559224,-0.012198318817210382
1740933585817237500,8.359237548828125,-0.06663081924915314,-0.020129289912991226,-0.004612674577359576
1740933585827203800,8.369203857421875,-0.06453530827462672,-0.009979195162747055,-0.011189840460987761
1740933585837170700,8.379170654296875,-0.05899637884795665,-0.012010134734772145,-0.004854906384996138
1740933585847137800,8.3891376953125,-0.056601592665910715,-0.026110976404789835,-0.022024497109022923
1740933585857103600,8.399103515625,-0.06168868667185306,-0.01549781245375052,-0.01300153865860775
1740933585867070700,8.40907080078125,-0.04552840998768806,-0.014273220828548074,-0.017016747383028268
1740933585877036500,8.41903662109375,-0.04777180500030517,-0.017930574292317033,-0.00883436280520109
1740933585887003600,8.429003662109375,-0.04822247137725353,-0.01905654611494392,0.003485571385215735
1740933585896970800,8.438970703125,-0.049420741251111025,-0.020949392390530557,-0.01062227198939072
1740933585906936600,8.4489365234375,-0.058850832897424696,-0.023216953730024397,0.003001044408683083
1740933585916903700,8.458903564453125,-0.056308162677288054,-0.022286267017479985,-0.0020793235997727606
1740933585926869500,8.468869384765625,-0.038348727616667744,-0.022400066122878343,0.0033838343228359004
1740933585936836600,8.478836669921876,-0.06273790346384048,-0.01618654363658279,-0.0023869682017713784
1740933585946803500,8.488803466796876,-0.06034253275990486,-0.024779691268410533,-0.006382227262595552
1740933585956769800,8.498769775390626,-0.04028817124664783,-0.015772482942976056,0.006428431891344371
1740933585966737000,8.50873681640625,-0.05465221216380596,-0.018665373106580226,-0.00886536130248569
1740933585976702700,8.51870263671875,-0.060038581377267836,-0.028866759652644396,-0.0070561593101621835
1740933585986669800,8.528669921875,-0.04492518339753151,-0.03455160035602748,-0.01485767421957571
1740933585996636700,8.53863671875,-0.057791094711422915,-0.0279392330115661,-0.00143560516902362
1740933586006602800,8.548602783203124,-0.04656768990755081,-0.008511278034653513,-0.0026517800215078748
1740933586016569600,8.558569580078125,-0.05105740254223346,-0.014022351340018212,-0.009834694958408363
1740933586026535700,8.56853564453125,-0.07395254043936729,-0.02222885600812733,-0.008130722889248864
1740933586036502500,8.57850244140625,-0.048664369925856585,-0.001543576180189848,-0.014985641130933071
1740933586046469600,8.5884697265625,-0.048664954447746274,-0.009746153591852635,-0.014627253864030352
1740933586056435700,8.598435791015625,-0.05135317061841488,-0.012818017051555216,-0.011898301540885586
1740933586066402600,8.608402587890625,-0.044021512556076045,-0.014455116734094917,-0.0037624697933235436
1740933586076368600,8.61836865234375,-0.06018588089346885,-0.017138437533937394,0.0005141623505041935
1740933586086335700,8.628335693359375,-0.05300035330355167,-0.021443550849333404,-0.01114515878575621
1740933586096301800,8.6383017578125,-0.05419511604607105,-0.037712256344035265,-0.009679313742095836
1740933586106268700,8.6482685546875,-0.05658873318433761,-0.03727916215639561,-0.007531518312016851
1740933586116235800,8.65823583984375,-0.056439095580577844,-0.019324786863382903,-0.021434785304276737
1740933586126201600,8.66820166015625,-0.04671382037997245,-0.011345825607143341,-0.01178826415350777
1740933586136168700,8.678168701171876,-0.055395724007487296,-0.036677451669890435,-0.015733059681463053
1740933586146134500,8.688134521484375,-0.056740124353766436,-0.032120354621112346,0.0005559699361707317
1740933586156101600,8.6981015625,-0.05464461337924003,-0.0073071629418991505,-0.00212000438249961
1740933586166068700,8.70806884765625,-0.06197217978835105,-0.008857753384765236,0.0026977203595975876
1740933586176034800,8.718034912109376,-0.049552843198180194,-0.018538805851154028,-0.007578039176241145
1740933586186001700,8.728001708984374,-0.041024668827652926,-0.02074811593107879,-0.011777157095959409
1740933586195967700,8.7379677734375,-0.05194529129266739,-0.02370844530770555,0.0009583892826893134
1740933586205934800,8.747934814453124,-0.04730243392288685,-0.023435071726422757,-0.018582866471877787
1740933586215901700,8.757901611328125,-0.048047114810347555,-0.005923490031156688,-0.0058337636378011665
1740933586225867800,8.76786767578125,-0.05926759700477123,-0.017695212900172917,0.00823839022302709
1740933586235834600,8.777834716796875,-0.06495441046953201,-0.026217669915966687,0.007232913249710691
1740933586245800700,8.78780078125,-0.058820437759160994,-0.025404709565266966,-0.01393144676972879
1740933586255767600,8.797767578125,-0.07647767500281333,-0.020023381853103636,-0.0185654472629074
1740933586265734700,8.807734619140625,-0.05238718984127044,-0.013538458546902984,-0.010667629518057218
1740933586275700500,8.817700439453125,-0.055981999462842935,-0.017286412903573363,-0.008484521316824247
1740933586285667600,8.82766748046875,-0.0713940881282091,-0.026587252147030085,-0.0086894544630195
1740933586295634000,8.837634033203125,-0.057927872833609576,-0.0010861695352010429,0.0007052427845716011
1740933586305600800,8.847600830078125,-0.06137012224197387,-0.011991375235375017,-0.004287162670996622
1740933586315567600,8.857567626953125,-0.05523381144404411,-0.015168543966766446,-0.014837589271127945
1740933586325533700,8.86753369140625,-0.05972527764439582,-0.008801968076918274,-0.007960462051746435
1740933586335500800,8.877500732421876,-0.06795125419795513,-0.010772281769197433,-0.010590219183580484
1740933586345466600,8.887466552734375,-0.055231473356485365,-0.014373356734775007,-0.007602748354990035
1740933586355433700,8.897433837890626,-0.05418284108638763,-0.02775547394249588,0.004709204600015073
1740933586365400800,8.90740087890625,-0.04984627318680286,-0.016095851412136108,-0.008272870164652705
1740933586375366700,8.91736669921875,-0.048802901613712306,-0.014572696965467183,-0.0018741655496472957
1740933586385333800,8.927333740234374,-0.04566051193475723,-0.009204740191530435,-0.005790753329847939
1740933586395299600,8.937299560546874,-0.05882920558750629,-0.027734833013266322,-0.014154873412195592
1740933586405266700,8.9472666015625,-0.054936874324083326,-0.03302548676729202,-0.001358125765065779
1740933586415233500,8.957233642578124,-0.05733341407179832,-0.005999240414798259,-0.006364662493974901
1740933586425199900,8.967199951171875,-0.06122691437900066,-0.02713209961345419,-0.004458258621316054
1740933586435166700,8.977166748046875,-0.06736030256748199,-0.028107246522232888,-0.025184817453601863
1740933586445132800,8.9871328125,-0.07424304781854152,-0.004331526398286223,-0.010021501076157437
1740933586455099600,8.997099609375,-0.06780979990065097,-0.015512644696701317,-0.006738424284878419
1740933586465065700,9.007065673828125,-0.06810965963006019,-0.023555446703080088,-0.007360709485242842
1740933586475032600,9.017032470703125,-0.06272387493848801,-0.02037208569291979,0.007698302271755528
1740933586484999700,9.026999755859375,-0.05494271954298019,-0.012727489223890005,-0.020786132686794734
1740933586494965800,9.0369658203125,-0.051496963003277774,-0.013507241424731909,-0.002285075875764596
1740933586504932600,9.0469326171875,-0.05852993037998676,-0.021743574975524097,-0.019816666600131427
1740933586514898700,9.056898681640625,-0.057035307908058164,-0.017310816692467777,-0.03190430985079147
1740933586524865500,9.066865478515625,-0.04895604634881019,-0.025808888185676185,-0.01966673445213819
1740933586534832600,9.07683251953125,-0.0588332972407341,-0.027090251499414443,-0.013717915900191292
1740933586544798700,9.086798828125,-0.07110416527092456,-0.028729323943331837,-0.015040384117519715
1740933586554765800,9.096765869140626,-0.07229892801344394,-0.01534132498409599,-0.014763310467009431
1740933586564731600,9.106731689453126,-0.0531383004695177,-0.01698854420185089,-0.002372103992779739
1740933586574698800,9.11669873046875,-0.05762742858231067,-0.022244345838204026,0.004732165921316481
1740933586584665900,9.126665771484374,-0.0694464611917734,-0.004673051578644663,0.008327986468930612
1740933586594631700,9.136631591796874,-0.055227966225147244,-0.00959510948229581,0.010209156577277462
1740933586604599000,9.14659912109375,-0.05807283426225185,-0.004715922605991363,-0.0057840090660523855
1740933586614564900,9.15656494140625,-0.062415247380733486,-0.010573562593013048,-0.002758475245151203
1740933586624532000,9.166531982421875,-0.05044891525506973,-0.0196653256630525,-0.017215838735259604
1740933586634498800,9.176498779296875,-0.05494038145542145,-0.0256888054699637,-0.01748937443003524
1740933586644465000,9.18646484375,-0.05882745202183723,-0.014466021720599383,-0.012958350254141259
1740933586654431700,9.196431640625,-0.0570294626891613,-0.03715829398939386,-0.01848107061481569
1740933586664398000,9.206398193359375,-0.06436053622961044,-0.014166417719516902,-0.031726169955043584
1740933586674365000,9.216364990234375,-0.045508536243438716,-0.02395898600267246,-0.03571708677171263
1740933586684331000,9.2263310546875,-0.06256780759394169,-0.028557785035017876,-0.029483542127406687
1740933586694298000,9.236298095703125,-0.061520344367623325,-0.01837612610273063,-0.017539121581095968
1740933586704265000,9.246264892578125,-0.06032441258132457,-0.006523593082465231,-0.012607472723547834
1740933586714231000,9.25623095703125,-0.04940145202875137,-0.022503234236408022,-0.0032016116216036605
1740933586724198000,9.266197998046875,-0.06182137314081192,-0.01772518791332841,0.00019085381767072247
1740933586734164000,9.2761640625,-0.06017302141189575,-0.01362268449794501,0.006852793641612515
1740933586744130800,9.286130859375,-0.05329027616083622,-0.001942128777410835,0.02384474850585684
1740933586754098000,9.296097900390626,-0.06136953772008419,-0.009164097653888165,0.010756386655388632
1740933586764063700,9.306063720703126,-0.06346504869461059,-0.015590605303738266,-0.00971868791290326
1740933586774030800,9.31603076171875,-0.06481470973789692,-0.019353538033831864,-0.00766745275905414
1740933586783997000,9.325996826171876,-0.0657131198823452,-0.02485624536965042,-0.015830997922382083
1740933586793964000,9.335964111328124,-0.05194704485833645,-0.01840953518198803,-0.014068962394143453
1740933586803931000,9.345930908203124,-0.04416881207227707,-0.025905937085673212,-0.01615165270300349
1740933586813897000,9.35589697265625,-0.062276715692877765,-0.014460852355137466,-0.022820794019289315
1740933586823864000,9.365864013671874,-0.053447512549161906,-0.004605575833003968,-0.023813143224618395
1740933586833830000,9.375829833984374,-0.04058043219149112,-0.013820380760822445,-0.027153946119081226
1740933586843797000,9.385796875,-0.04806289690136909,-0.01183896115263924,-0.012402289557247422
1740933586853763800,9.395763916015625,-0.07140811665356159,-0.020159611986018715,-0.010222294620063622
1740933586863730000,9.40572998046875,-0.058688335812091826,-0.011340784105844794,-0.003552525399404112
1740933586873697000,9.415697021484375,-0.07784487170279025,-0.030984920850396155,0.0015556313733424757
1740933586883662800,9.425662841796875,-0.05794248588085174,-0.028753198009263722,0.003003683319519041
1740933586893630000,9.4356298828125,-0.08173544940054416,-0.023198048100154845,-0.0139996897003497
1740933586903596000,9.445595947265625,-0.03474982634186744,-0.009113317314721644,0.006697410712833516
1740933586913563100,9.455563232421875,-0.044029111340641976,-0.02055657541435212,0.00676053279787593
1740933586923530000,9.465530029296875,-0.060635962748527526,0.0005676986190490424,-0.006493313821099582
1740933586933496000,9.47549609375,-0.048213119027018546,-0.016456483151763675,-0.01435308683994808
1740933586943463000,9.485462890625,-0.05719020620882511,-0.002157579892687499,-0.015087753223470644
1740933586953429000,9.495428955078125,-0.05494388858675956,-0.013443510272447019,-0.012366673679527594
1740933586963395800,9.505395751953126,-0.058985857453942296,-0.01576223554359749,-0.04071659839232452
1740933586973363000,9.515363037109376,-0.0574912349820137,-0.030518435849808154,-0.04546421304452233
1740933586983328800,9.525328857421876,-0.061686348584294316,-0.030449900658242404,-0.040880511116608974
1740933586993296000,9.5352958984375,-0.07904314157664775,-0.027644761843327433,-0.011825234021386131
1740933587003262000,9.545261962890624,-0.0904126768529415,-0.019246771457418797,-0.015168187773739919
1740933587013228800,9.555228759765624,-0.049261751297116275,-0.005950323239155114,0.012926352247258181
1740933587023196000,9.56519580078125,-0.004821136546134948,-0.010961776459310204,-0.004211253027972998
1740933587033162000,9.575161865234374,-0.026818448820710182,-0.0013592691218480466,-0.02775261069855187
1740933587043129000,9.585129150390625,-0.11734744552969932,-0.0223785301445052,-0.01846222206716193
1740933587053095000,9.595094970703125,-0.058687751290202136,-0.014654329100623725,-0.02424083515135571
1740933587063062000,9.60506201171875,-0.05854045177400112,-0.027591040628403424,-0.009587494714709464
1740933587073029000,9.615029052734375,-0.08607727799713612,-0.026976087067835032,-0.017569812405237462
1740933587082995000,9.624994873046875,-0.08997019378244876,-0.017454791740421204,0.01545083721508854
1740933587092962000,9.634962158203125,-0.043732758742570876,-0.007400978705193847,0.000013971443136688321
1740933587102928000,9.644927978515625,-0.028166356298327443,0.011282277117948979,-0.0033564559796766843
1740933587112895000,9.65489501953125,-0.07589899833202361,-0.004215882395673543,-0.011826440739427926
1740933587122860800,9.66486083984375,-0.06602174744009971,-0.03628940220037475,-0.034168850399425715
1740933587132828000,9.674827880859375,-0.07350421214997768,-0.05017819028859958,-0.03650945870882133
1740933587142794800,9.684794677734375,-0.053150575429201125,-0.011696703137736767,-0.024724399150907992
1740933587152761000,9.694760986328125,-0.07320376789867877,-0.02058764640605077,-0.02327410901105031
1740933587162728000,9.70472802734375,-0.06332768605053425,-0.024795656022522598,-0.011538558000535704
1740933587172694000,9.714694091796876,-0.06676993545889855,-0.020574732125550506,-0.002772974698783946
1740933587182660900,9.724660888671876,-0.04252513651847839,-0.002923559296503663,-0.020815189817920327
1740933587192628000,9.7346279296875,-0.04447100988924503,-0.006325220966152846,-0.0018874303149525075
1740933587202594000,9.744593994140626,-0.09370061248242854,-0.02792648312784731,-0.008967653204003
1740933587212561000,9.754560791015624,-0.06676350571811199,-0.030569234455283728,-0.014183857478084974
1740933587222527000,9.76452685546875,-0.05030336930453777,-0.010949373635463416,0.004529166149770026
1740933587232493800,9.774493896484374,-0.044917000091075895,-0.011984032179135828,-0.0036176151084247976
1740933587242460000,9.7844599609375,-0.05329436781406402,-0.013565602282155304,0.0027151441351452375
1740933587252426800,9.7944267578125,-0.0679611910700798,-0.018872001594584433,0.003432367335166782
1740933587262393900,9.804393798828125,-0.03668693188428879,-0.022466409357357768,-0.005082770598918432
1740933587272360000,9.81435986328125,-0.06092763917148113,-0.03683412180263549,-0.011293056523578706
1740933587282327000,9.8243271484375,-0.06601473317742347,-0.028793164693471044,-0.007822871649629087
1740933587292292900,9.83429296875,-0.06660919193923473,-0.027911230759788304,-0.008599415259121451
1740933587302260000,9.844260009765625,-0.05164660060703754,-0.004069697124324739,-0.0186496206983109
1740933587312227000,9.85422705078125,-0.03503682658970356,0.0037005715509876606,-0.012702619644114748
1740933587322193000,9.86419287109375,-0.058525838726758955,-0.010679488919209688,-0.007447625721115037
1740933587332160000,9.874159912109375,-0.06570961275100708,-0.01631155825573951,-0.013932192263467003
1740933587342125800,9.884125732421875,-0.04431669611036777,-0.01444528945982456,0.0023040659873135153
1740933587352093000,9.894093017578125,-0.05089958163201808,-0.013609459690190851,-0.0036065291712962786
1740933587362059800,9.904059814453126,-0.05523965666294098,-0.028385424142796545,-0.0017238326844992114
1740933587372025900,9.91402587890625,-0.07364566644728184,-0.023275095391739158,-0.008542139534620219
1740933587381992700,9.92399267578125,-0.06750935564935207,-0.04248842123728245,-0.008810772437881679
1740933587391959000,9.933958984375,-0.03937807066440582,-0.008482910456694663,0.00218581218579493
1740933587401926100,9.943926025390626,-0.04970131175816059,-0.025030926083121446,-0.00919217696665728
1740933587411892000,9.95389208984375,-0.05389116466343403,-0.020842991140298545,-0.003400899622068391
1740933587421859000,9.963859130859374,-0.04671148229241371,-0.00754594013383612,0.0034189775598089905
1740933587431826000,9.973825927734374,-0.03399287049472332,-0.006635090632922947,0.0044600138994515875
1740933587441792000,9.9837919921875,-0.04416939659416675,-0.010305924632772802,-0.017092650747008154
1740933587451758800,9.9937587890625,-0.07110241170525551,-0.05153700275272131,-0.01266840913054766
1740933587461725000,10.003724853515624,-0.07634615757763386,-0.03899135463545099,-0.03037499965797178
1740933587471691800,10.01369189453125,-0.05764496423900127,-0.0240351747777313,-0.003582252104920917
1740933587481659000,10.023658935546875,-0.046422728478908534,-0.01683476014593616,-0.002803179753269069
1740933587491625000,10.033625,-0.06707330231964588,-0.01725965276081115,-0.01348127814970212
1740933587501591800,10.043591796875,-0.05958849952220916,-0.014975998803041875,-0.007672321301238844
1740933587511558000,10.053557861328125,-0.04507014482617378,-0.008695384163595736,-0.006879400233214255
1740933587521525000,10.06352490234375,-0.04297404932975769,-0.010994199157878757,-0.0024161166644422337
1740933587531491000,10.073490966796875,-0.05330138207674026,-0.01672708025407046,-0.0098918445312127
1740933587541458000,10.0834580078125,-0.06736673230826855,-0.03904514891561121,-0.013626673403184394
1740933587551425000,10.093425048828125,-0.07769114244580268,-0.018563995091337708,-0.01461327557102777
1740933587561390800,10.103390869140625,-0.0735030431061983,-0.01985131322182715,0.0015860464903817045
1740933587571358000,10.11335791015625,-0.054499651950597756,-0.02640948442732915,0.010002748426626204
1740933587581323800,10.12332373046875,-0.03983341321647167,-0.017815569610521196,-0.009550877614924683
1740933587591291000,10.133290771484376,-0.045673955938220025,-0.014314703616406767,-0.002783975583410938
1740933587601258000,10.143258056640626,-0.07500117270946502,-0.011411255526170134,-0.01588986909481464
1740933587611224600,10.153224609375,-0.06019172611236572,-0.02618000478670001,-0.013774163573986151
1740933587621191400,10.16319140625,-0.06453355470895766,-0.020835447154659778,-0.0058435155635466795
1740933587631157800,10.17315771484375,-0.05660276170969009,-0.012754158035106955,-0.006018789932061917
1740933587641124600,10.18312451171875,-0.05780278514921665,-0.021768892079871146,-0.01293789997951244
1740933587651091500,10.193091552734375,-0.05675532192289829,-0.0210134888689965,-0.016436171016097068
1740933587661057500,10.2030576171875,-0.07800503070056437,-0.015415906323958187,-0.0027940774231392422
1740933587671024600,10.213024658203125,-0.06035071606636047,-0.024427516829874363,-0.0033867192580219123
1740933587680990500,10.222990478515625,-0.05885200194120407,-0.021233871887717394,-0.0010231787392549448
1740933587690957600,10.23295751953125,-0.04538403308093548,-0.0033145131091587244,-0.0029434889813244806
1740933587700923400,10.24292333984375,-0.054362873828411096,-0.011218107574246823,0.000007993222677032463
1740933587710890500,10.252890380859375,-0.06289338628649711,-0.0017279015048407018,-0.009402039733008133
1740933587720857600,10.262857666015625,-0.0401502240806818,-0.01304265612028539,0.0037923586123331915
1740933587730823400,10.272823486328125,-0.04613631275296211,-0.012104169693775474,-0.006471668815694284
1740933587740790500,10.28279052734375,-0.06214812087714672,-0.044858657499961554,-0.007626693773691659
1740933587750756600,10.292756591796875,-0.06963292367458343,-0.032912582711037246,-0.008148861904960359
1740933587760723700,10.3027236328125,-0.0546720859080553,-0.022783603814058005,-0.013686126814218004
1740933587770690600,10.312690673828126,-0.05108019889593124,-0.019507669149618594,-0.015357432443747529
1740933587780656600,10.32265673828125,-0.06604454379379748,-0.018141440564021467,-0.015938520267332206
1740933587790623700,10.332623779296876,-0.06529635577499866,-0.01067004523742944,-0.01207056653498439
1740933587800589600,10.342589599609376,-0.049586745467782016,-0.008016224526707083,-0.014809036746789933
1740933587810556700,10.352556640625,-0.052881110838055606,-0.008968209755606948,-0.02071044623523485
1740933587820522500,10.3625224609375,-0.06844575971662997,0.007738320900779217,-0.007571253242428065
1740933587830489600,10.372489501953124,-0.06754793409407138,-0.024293460387736557,0.0038473852975323096
1740933587840456400,10.38245654296875,-0.05482639968693256,-0.0257266167297028,0.000919404412593576
1740933587850422500,10.392422607421874,-0.058414195045828815,-0.01854664209773764,0.012109568529744865
1740933587860389400,10.402389404296875,-0.06469605179429054,-0.02659200138738379,-0.016812765226548072
1740933587870355700,10.412355712890625,-0.05422434214055538,-0.013166081570554523,-0.022239295203750953
1740933587880322600,10.422322509765625,-0.05332476295232773,-0.012490392532385885,-0.019759641466557513
1740933587890289700,10.43228955078125,-0.0471913747638464,-0.006883932561147958,-0.009644534689659486
1740933587900255500,10.44225537109375,-0.06455109036564827,-0.017430314886290578,-0.0030127399838762356
1740933587910222600,10.45222265625,-0.05587386291325092,-0.010482596373930573,-0.023084573221742174
1740933587920188700,10.462188720703125,-0.0513870728880167,-0.015459836797229945,-0.004411997481173603
1740933587930155500,10.472155517578125,-0.06530395455956459,-0.019175240591168402,0.006170787885444588
1740933587940121600,10.48212158203125,-0.06679974607527256,-0.020544263922050596,-0.0075679670192650515
1740933587950088400,10.49208837890625,-0.06889584157168865,-0.01855493500204757,-0.009868268434447236
1740933587960055600,10.5020556640625,-0.05767243676781654,-0.02156058309143409,0.008101653770857956
1740933587970021400,10.512021484375,-0.06275777720808982,-0.01538870778977871,-0.03894272515417542
1740933587979988500,10.521988525390626,-0.05677285757958889,-0.016859383130539207,-0.024735646630707195
1740933587989954600,10.53195458984375,-0.05333060817122459,-0.008646247792243957,-0.020150497097801416
1740933587999921700,10.541921630859376,-0.0501888030141592,-0.0035397914987057447,-0.01348279539499781
1740933588009888800,10.551888671875,-0.06919628582298755,-0.01805984496148303,0.0009455115348071558
1740933588019854600,10.5618544921875,-0.05991875438988208,-0.035118495257478205,-0.0026981713091023263
1740933588029821700,10.57182177734375,-0.05243336707055568,-0.023588289526756852,-0.005003946337956586
1740933588039787500,10.58178759765625,-0.05946574992537498,-0.01208354703085497,-0.0035913687056046907
1740933588049754600,10.591754638671874,-0.07038695691227913,-0.017435100659262386,0.0026145104719966185
1740933588059720400,10.601720458984374,-0.05856617073714733,-0.0072227908603847025,-0.00757186516378133
1740933588069687600,10.6116875,-0.06185819801986217,-0.012464363041985779,-0.014962876743276137
1740933588079654400,10.621654296875,-0.04629705627262592,-0.019444157193042336,-0.009906384513218654
1740933588089620500,10.631620361328125,-0.047050504988431927,-0.01773843098739162,0.00009037370568257756
1740933588099587300,10.64158740234375,-0.06276420694887638,-0.028578170235920696,-0.006860117289898334
1740933588109553700,10.6515537109375,-0.05034487035870552,-0.016576090943440792,-0.014580967036890796
1740933588119520800,10.661520751953125,-0.03223638221621513,-0.01938364091115072,-0.012460145807883237
1740933588129487600,10.671487548828125,-0.062166241055727,-0.02196841497365385,-0.025579668839951043
1740933588139453700,10.68145361328125,-0.055282911282777784,-0.01717378284195438,-0.027488822362944483
1740933588149420500,10.691420654296875,-0.0916460180401802,-0.02386458571748808,-0.030078432430769315
1740933588159386600,10.70138671875,-0.06381400826275348,-0.018005721887759864,-0.0020404700187733396
1740933588169353500,10.711353515625,-0.052291328251361846,-0.022375571002438664,-0.0037520311685220803
1740933588179319600,10.721319580078125,-0.04406242908835411,-0.01079778153663501,0.007304977263856562
1740933588189286400,10.731286376953125,-0.04660860643982887,-0.0053296340575441714,-0.006653976284016971
1740933588199253500,10.74125341796875,-0.05484393534362316,0.0014729768957011402,0.0007162853392161196
1740933588209219300,10.75121923828125,-0.07459609903991223,0.007168119797389954,0.004851167499861912
1740933588219186400,10.7611865234375,-0.09435001630187034,-0.031078353021200746,-0.009845516604877775
1740933588229152500,10.771152587890626,-0.06202770936787128,-0.0324454583896324,-0.016896555069461465
1740933588239119600,10.78111962890625,-0.06921557504534721,-0.017997556847613304,-0.016218086127383867
1740933588249086700,10.791086669921874,-0.04167991786599159,-0.01226177140828222,-0.00044765015266602854
1740933588259052500,10.801052490234374,-0.05469780487120151,-0.004514682679157704,-0.027981220406212377
1740933588269019600,10.81101953125,-0.06412438938617705,-0.017720091613102704,0.0003660397087514866
1740933588278985500,10.8209853515625,-0.06532207473814487,-0.0290561630112119,0.010930301325523759
1740933588288952600,10.83095263671875,-0.05275485410988331,-0.03151873546615243,-0.022562522109015843
1740933588298918400,10.84091845703125,-0.05230594129860401,-0.035691984296496955,-0.012676375524583271
1740933588308885500,10.850885498046875,-0.053201428833603855,-0.02322831537425518,-0.024329901674296706
1740933588318852600,10.8608525390625,-0.051255555462837214,-0.011739446300920098,-0.020027537438413127
1740933588328818400,10.870818359375,-0.058439329487085336,-0.02365854175137356,-0.008234034849962336
1740933588338785500,10.88078564453125,-0.06143032799661159,-0.030918486284371462,0.000004681312516913749
1740933588348751600,10.890751708984375,-0.049909401550889014,-0.031306937612686304,-0.016392704050417522
1740933588358718700,10.90071875,-0.061280690392851826,-0.020435506317950783,-0.0018766571883665163
1740933588368684500,10.9106845703125,-0.061280690392851826,-0.021332692619692534,-0.002997295819572173
1740933588378651600,10.920651611328125,-0.056342064946889876,-0.006552435584459454,-0.016568960233044345
1740933588388618500,10.930618408203125,-0.05783493385314941,-0.0032672581676393745,0.0004475462630332913
1740933588398584600,10.94058447265625,-0.06217559340596199,0.011145608593616635,0.004735809479150339
1740933588408551400,10.950551513671876,-0.07324936060607433,-0.016353424636088312,-0.002091014037566492
1740933588418517500,10.960517578125,-0.05334814382791519,-0.01410780113376677,-0.00641555243099574
1740933588428484400,10.970484375,-0.06352350088357925,-0.007517262028623372,0.0017853587507881455
1740933588438451500,10.980451416015624,-0.057086161312460894,-0.014221326244529335,-0.016057100579125107
1740933588448417500,10.99041748046875,-0.042271454018354415,-0.01888350936928764,-0.0007831423136376543
1740933588458384600,11.000384521484374,-0.046460722401738166,-0.004849431058857589,-0.011615223982918541
1740933588468350700,11.010350830078124,-0.07339666012227535,-0.004943447751551866,-0.017670156090729867
1740933588478317600,11.020317626953124,-0.06801029090881347,-0.019597210596594958,-0.015174537599424364
1740933588488283600,11.03028369140625,-0.053497196909785265,-0.01338964292705059,-0.02365996652347967
1740933588498250500,11.04025048828125,-0.06801262899637221,-0.005425038989726454,-0.007820174514933022
1740933588508217600,11.050217529296875,-0.05140285497903824,-0.022043781764805315,-0.01781182501716539
1740933588518183400,11.060183349609375,-0.06711480337381362,-0.012316241541877389,-0.009139491223127696
1740933588528150500,11.070150634765625,-0.07339958273172378,-0.016508103741146623,-0.0012607903123454888
1740933588538116400,11.080116455078125,-0.06771335378885268,-0.025937209006771444,-0.02124230635592248
1740933588548083500,11.09008349609375,-0.058284431186318396,-0.025558566686417906,-0.00536989985256223
1740933588558050600,11.100050537109375,-0.053343467652797696,-0.013858283352106808,0.00952484755370242
1740933588568016600,11.1100166015625,-0.05573708479106426,-0.00878730023074895,-0.008729032988159451
1740933588577983700,11.119983642578125,-0.050801966476440426,-0.011049326878599821,-0.004630854121444281
1740933588587949600,11.129949462890625,-0.061278936827182766,-0.006928319692146033,-0.001354510748339817
1740933588597916700,11.139916748046875,-0.06337795493304729,-0.029040380920190362,-0.009551241228639264
1740933588607882000,11.149882080078125,-0.062332245272397994,-0.01999875886850059,-0.0194506166165811
1740933588617849000,11.15984912109375,-0.07100830368101596,-0.02833968530492857,-0.011579278169991448
1740933588627816000,11.16981591796875,-0.05469488226175308,-0.02905972494147718,-0.023082187185122165
1740933588637782000,11.179781982421876,-0.05888473516702652,-0.017836703730095178,-0.021731220100738573
1740933588647748900,11.189748779296876,-0.06337678588926791,-0.02609278316097334,-0.02109622154927347
1740933588657715200,11.199715087890626,-0.05260521650612354,-0.020309340921323745,-0.02594426436864305
1740933588667682000,11.20968212890625,-0.05575169783830643,-0.016697799360658974,-0.013353493901435285
1740933588677648100,11.219648193359374,-0.05336158783137798,-0.01680728761712089,-0.003558665162534453
1740933588687615200,11.229615234375,-0.05156944371759891,-0.020102474971301854,-0.009030041782572516
1740933588697582000,11.23958203125,-0.06384089626967906,-0.010047182365041226,0.006284829019437893
1740933588707548200,11.249548095703124,-0.056959904584288595,-0.02401035086372867,-0.004850928325377753
1740933588717515000,11.259514892578125,-0.06698854664564133,-0.026435952309146523,-0.009179007528652437
1740933588727481000,11.269481201171875,-0.05651683699190616,-0.009704396809358149,-0.008544014685408911
1740933588737448000,11.279447998046875,-0.06085457393527031,-0.025342110924143343,-0.0008256423065817216
1740933588747415000,11.2894150390625,-0.05471709409356117,-0.023637005773000416,0.004658348341501551
1740933588757380900,11.299380859375,-0.055014031213521955,-0.01999430188909173,-0.008372639032232109
1740933588767348000,11.309347900390625,-0.053368017572164535,-0.011461871468555181,-0.014977285436185775
1740933588777314000,11.31931396484375,-0.06294891586601734,-0.007838767334260047,-0.01880372441463405
1740933588787281200,11.32928125,-0.04409633135795593,0.004183057838305831,-0.01588463579727104
1740933588797247200,11.339247314453125,-0.05950900454521179,-0.0207930693176575,-0.0033852037251926956
1740933588807214000,11.349214111328125,-0.07566635861992836,-0.027224253142625093,-0.016988546485139523
1740933588817181200,11.35918115234375,-0.07312135031223296,-0.030274872884899377,-0.012896092964668059
1740933588827147000,11.36914697265625,-0.05082300926446914,-0.01674430538350716,-0.017094431712140794
1740933588837114000,11.379114013671876,-0.0563584315598011,-0.007812135055661201,0.001157032539526699
1740933588847080000,11.389079833984376,-0.05725684170424938,-0.008542275961115956,-0.014476956389856058
1740933588857047000,11.399047119140626,-0.051718496799468994,-0.019393431652802974,-0.009288635065720882
1740933588867012900,11.409012939453126,-0.05246200864315033,-0.017639829451125116,0.000598624621919589
1740933588876980000,11.41897998046875,-0.067272624284029,-0.02077984450990334,-0.009135720371952628
1740933588886947000,11.428947021484374,-0.05829086092710495,-0.029903080430440602,-0.012575953065633074
1740933588896913200,11.4389130859375,-0.05305296027362346,-0.022154822657536714,-0.005813518288327032
1740933588906880300,11.44888037109375,-0.0675689768821001,0.0012422186134383082,-0.017763019722665193
1740933588916846000,11.45884619140625,-0.05529869337379932,-0.025385201147198676,-0.012377671139221638
1740933588926813200,11.468813232421875,-0.06607435441017151,-0.024119473794009534,-0.0010229658225900493
1740933588936780000,11.478780029296875,-0.058147068542242046,-0.016790025955066085,-0.007814128366636577
1740933588946746000,11.48874609375,-0.048721068549156185,-0.008199326008651406,-0.007111914364434778
1740933588956713000,11.498712890625,-0.04917290396988391,-0.0327701602993533,-0.00411449239316571
1740933588966679000,11.508678955078125,-0.05605857183039188,-0.007377835291624069,-0.020180456127936484
1740933588976646000,11.51864599609375,-0.07281681440770625,-0.013573931719083339,-0.01781648863419541
1740933588986612000,11.528612060546875,-0.05007599028944969,-0.02852634871713817,-0.00816759857147117
1740933588996579000,11.5385791015625,-0.04379413354098797,-0.019562888201884926,-0.0034393941559304948
1740933589006546000,11.5485458984375,-0.06280044730603694,-0.015887670287862418,-0.01457500537027372
1740933589016512300,11.55851220703125,-0.07028174297213553,-0.0046796639825217425,0.01039560307706706
1740933589026479000,11.56847900390625,-0.0738736299842596,-0.008366608866956084,-0.007837906534445938
1740933589036445200,11.578445068359375,-0.031825463327765466,-0.018826317555643617,0.01365708680775715
1740933589046412000,11.588412109375,-0.05307692567110062,-0.0148046973567456,0.012194985215808264
1740933589056378000,11.598378173828126,-0.07028758819103241,-0.01829694165298715,-0.01487736986731179
1740933589066345000,11.608344970703126,-0.06086041915416717,-0.011883421348873525,-0.0042478353076061464
1740933589076312000,11.61831201171875,-0.05367606060802936,-0.015842972629610447,0.000728393048007274
1740933589086278000,11.62827783203125,-0.042598201754689216,-0.01515162936458364,0.0011781940585642587
1740933589096245000,11.638244873046874,-0.03691314185559749,-0.01618066188506782,-0.00740359992054291
1740933589106211000,11.648211181640624,-0.04709317508637905,0.005264916524570435,-0.018009683393535668
